%time,field.header.seq,field.header.stamp,field.header.frame_id,field.orientation.x,field.orientation.y,field.orientation.z,field.orientation.w,field.orientation_covariance0,field.orientation_covariance1,field.orientation_covariance2,field.orientation_covariance3,field.orientation_covariance4,field.orientation_covariance5,field.orientation_covariance6,field.orientation_covariance7,field.orientation_covariance8,field.angular_velocity.x,field.angular_velocity.y,field.angular_velocity.z,field.angular_velocity_covariance0,field.angular_velocity_covariance1,field.angular_velocity_covariance2,field.angular_velocity_covariance3,field.angular_velocity_covariance4,field.angular_velocity_covariance5,field.angular_velocity_covariance6,field.angular_velocity_covariance7,field.angular_velocity_covariance8,field.linear_acceleration.x,field.linear_acceleration.y,field.linear_acceleration.z,field.linear_acceleration_covariance0,field.linear_acceleration_covariance1,field.linear_acceleration_covariance2,field.linear_acceleration_covariance3,field.linear_acceleration_covariance4,field.linear_acceleration_covariance5,field.linear_acceleration_covariance6,field.linear_acceleration_covariance7,field.linear_acceleration_covariance8,road
1.55619146475181E+018,563,1.55619146475031E+018,base_imu_link,0.5041979205,0.8633319291,0.0109819948,-0.017939702,0.0025,0,0,0,0.0025,0,0,0,0.0025,-0.01,0,-0.18,0.02,0,0,0,0.02,0,0,0,0.02,0.6270477344,-0.15321875,-10.6965839844,0.04,0,0,0,0.04,0,0,0,0.04,1
1.55619146476633E+018,564,1.55619146476611E+018,base_imu_link,0.5041841535,0.863322791,0.0110326218,-0.018718418,0.0025,0,0,0,0.0025,0,0,0,0.0025,-0.02,-0.01,-0.19,0.02,0,0,0,0.02,0,0,0,0.02,0.689484375,-0.1103175,-10.6341473437,0.04,0,0,0,0.04,0,0,0,0.04,1
1.55619146478659E+018,565,1.55619146478628E+018,base_imu_link,0.5039467336,0.863439011,0.011392151,-0.0195187843,0.0025,0,0,0,0.0025,0,0,0,0.0025,-0.03,-0.02,-0.19,0.02,0,0,0,0.02,0,0,0,0.02,0.5554179688,0.15321875,-10.1074578906,0.04,0,0,0,0.04,0,0,0,0.04,1
1.55619146480644E+018,566,1.55619146480604E+018,base_imu_link,0.5038184455,0.8635059927,0.0126509745,-0.0190873622,0.0025,0,0,0,0.0025,0,0,0,0.0025,-0.04,-0.03,-0.19,0.02,0,0,0,0.02,0,0,0,0.02,-0.0287285156,-0.5508214063,-10.7253125,0.04,0,0,0,0.04,0,0,0,0.04,1
1.55619146482737E+018,567,1.55619146482626E+018,base_imu_link,-0.5036587025,-0.8636591538,-0.009878271,0.017977685,0.0025,0,0,0,0.0025,0,0,0,0.0025,-0.05,-0.02,-0.2,0.02,0,0,0,0.02,0,0,0,0.02,0.689484375,0.2777089844,-10.3181336719,0.04,0,0,0,0.04,0,0,0,0.04,1
1.5561914648466E+018,568,1.55619146484615E+018,base_imu_link,0.5033825288,0.8637935475,0.0121328914,-0.0178753997,0.0025,0,0,0,0.0025,0,0,0,0.0025,-0.06,-0.03,-0.2,0.02,0,0,0,0.02,0,0,0,0.02,0.6416035156,0.1198936719,-9.9017617188,0.04,0,0,0,0.04,0,0,0,0.04,1
1.55619146486734E+018,569,1.55619146486677E+018,base_imu_link,0.5031686466,0.8638932564,0.0135473094,-0.0180616988,0.0025,0,0,0,0.0025,0,0,0,0.0025,-0.06,-0.03,-0.21,0.02,0,0,0,0.02,0,0,0,0.02,0.8572589063,-0.0049796094,-9.8443046875,0.04,0,0,0,0.04,0,0,0,0.04,1
1.55619146488707E+018,570,1.55619146488657E+018,base_imu_link,0.5030818611,0.8638907176,0.0148129381,-0.0195459928,0.0025,0,0,0,0.0025,0,0,0,0.0025,-0.05,-0.02,-0.21,0.02,0,0,0,0.02,0,0,0,0.02,-0.3018409375,-0.3880264844,-10.5146367187,0.04,0,0,0,0.04,0,0,0,0.04,1
1.55619146490606E+018,571,1.5561914649058E+018,base_imu_link,0.5030167963,0.8640319055,0.0116737968,-0.0169319598,0.0025,0,0,0,0.0025,0,0,0,0.0025,-0.05,-0.02,-0.21,0.02,0,0,0,0.02,0,0,0,0.02,0.2202519531,0.1007413281,-10.6295507812,0.04,0,0,0,0.04,0,0,0,0.04,1
1.55619146492698E+018,572,1.55619146492643E+018,base_imu_link,0.5028922543,0.8641280343,0.012005333,-0.0154270179,0.0025,0,0,0,0.0025,0,0,0,0.0025,-0.06,-0.02,-0.21,0.02,0,0,0,0.02,0,0,0,0.02,0.5125167188,0.842703125,-10.0549804687,0.04,0,0,0,0.04,0,0,0,0.04,1
1.55619146494635E+018,573,1.55619146494595E+018,base_imu_link,0.5024263828,0.8643641828,0.0160621419,-0.0135755986,0.0025,0,0,0,0.0025,0,0,0,0.0025,-0.05,-0.02,-0.21,0.02,0,0,0,0.02,0,0,0,0.02,0.7611141406,-0.340145625,-10.1840672656,0.04,0,0,0,0.04,0,0,0,0.04,1
1.55619146496623E+018,574,1.55619146496588E+018,base_imu_link,0.5023174685,0.86440257,0.0153410048,-0.0158117458,0.0025,0,0,0,0.0025,0,0,0,0.0025,-0.05,-0.02,-0.21,0.02,0,0,0,0.02,0,0,0,0.02,0.3160136719,0.1340664063,-10.3997226562,0.04,0,0,0,0.04,0,0,0,0.04,1
1.55619146498644E+018,575,1.55619146498599E+018,base_imu_link,0.5021812507,0.8644941153,0.0155913346,-0.0148602265,0.0025,0,0,0,0.0025,0,0,0,0.0025,-0.05,-0.01,-0.22,0.02,0,0,0,0.02,0,0,0,0.02,0.1965030469,0.9434444531,-10.4905047656,0.04,0,0,0,0.04,0,0,0,0.04,1
1.55619146500763E+018,576,1.5561914650058E+018,base_imu_link,0.5020131766,0.8645798492,0.0185644694,-0.0118243563,0.0025,0,0,0,0.0025,0,0,0,0.0025,-0.04,-0.01,-0.21,0.02,0,0,0,0.02,0,0,0,0.02,0.8235507813,0.1915234375,-9.5428467969,0.04,0,0,0,0.04,0,0,0,0.04,1
1.55619146502724E+018,577,1.55619146502683E+018,base_imu_link,0.5020154522,0.8645190624,0.0200798953,-0.0135674,0.0025,0,0,0,0.0025,0,0,0,0.0025,-0.03,-0.01,-0.2,0.02,0,0,0,0.02,0,0,0,0.02,0.3160136719,-0.2681328125,-10.2465039062,0.04,0,0,0,0.04,0,0,0,0.04,1
1.55619146504619E+018,578,1.55619146504576E+018,base_imu_link,0.5019917315,0.8645684479,0.0181890982,-0.0139591225,0.0025,0,0,0,0.0025,0,0,0,0.0025,-0.04,0,-0.21,0.02,0,0,0,0.02,0,0,0,0.02,0.8905839844,1.2544785156,-9.5907276563,0.04,0,0,0,0.04,0,0,0,0.04,1
1.55619146506632E+018,579,1.55619146506591E+018,base_imu_link,0.5019173046,0.8644648201,0.0245543656,-0.0132920041,0.0025,0,0,0,0.0025,0,0,0,0.0025,-0.02,0.01,-0.2,0.02,0,0,0,0.02,0,0,0,0.02,0.6366239063,0.2394042969,-9.7726749219,0.04,0,0,0,0.04,0,0,0,0.04,1
1.55619146508618E+018,580,1.55619146508575E+018,base_imu_link,0.501917709,0.8644351149,0.0250793297,-0.0141976269,0.0025,0,0,0,0.0025,0,0,0,0.0025,-0.01,0.01,-0.21,0.02,0,0,0,0.02,0,0,0,0.02,0.4742120313,0.5075371094,-10.4138953906,0.04,0,0,0,0.04,0,0,0,0.04,1
1.55619146510598E+018,581,1.55619146510564E+018,base_imu_link,0.5020088264,0.8643648631,0.0260174234,-0.013550472,0.0025,0,0,0,0.0025,0,0,0,0.0025,0,0.02,-0.21,0.02,0,0,0,0.02,0,0,0,0.02,0.8810078125,0.5649941406,-9.84890125,0.04,0,0,0,0.04,0,0,0,0.04,1
1.55619146512632E+018,582,1.55619146512585E+018,base_imu_link,0.502180743,0.864174994,0.0282450251,-0.01477497,0.0025,0,0,0,0.0025,0,0,0,0.0025,0.01,0.01,-0.21,0.02,0,0,0,0.02,0,0,0,0.02,0.2539600781,0.3543183594,-10.7253125,0.04,0,0,0,0.04,0,0,0,0.04,1
1.55619146514582E+018,583,1.55619146514543E+018,base_imu_link,0.5024050062,0.864084451,0.0275922576,-0.0136359291,0.0025,0,0,0,0.0025,0,0,0,0.0025,0.01,0.01,-0.22,0.02,0,0,0,0.02,0,0,0,0.02,0.6366239063,1.0870870313,-10.7348886719,0.04,0,0,0,0.04,0,0,0,0.04,1
1.55619146516611E+018,584,1.55619146516564E+018,base_imu_link,0.5025940638,0.8638993851,0.0302699528,-0.0126802724,0.0025,0,0,0,0.0025,0,0,0,0.0025,0.03,0.01,-0.22,0.02,0,0,0,0.02,0,0,0,0.02,0.689484375,0.3638945313,-10.1744910937,0.04,0,0,0,0.04,0,0,0,0.04,1
1.55619146518608E+018,585,1.55619146518554E+018,base_imu_link,0.5027428157,0.8637993351,0.0303209932,-0.0134538953,0.0025,0,0,0,0.0025,0,0,0,0.0025,0.03,0,-0.22,0.02,0,0,0,0.02,0,0,0,0.02,-0.0528604688,0.3351660156,-10.6678554687,0.04,0,0,0,0.04,0,0,0,0.04,1
1.55619146520581E+018,586,1.55619146520545E+018,base_imu_link,0.5028772611,0.8638100984,0.0285567473,-0.0114492989,0.0025,0,0,0,0.0025,0,0,0,0.0025,0.03,0.01,-0.23,0.02,0,0,0,0.02,0,0,0,0.02,0.8618554688,0.4837882031,-9.8776297656,0.04,0,0,0,0.04,0,0,0,0.04,1
1.55619146522621E+018,587,1.5561914652258E+018,base_imu_link,0.5031149975,0.8636079417,0.0298255131,-0.0129252114,0.0025,0,0,0,0.0025,0,0,0,0.0025,0.04,0,-0.22,0.02,0,0,0,0.02,0,0,0,0.02,0.2010996094,0.033708125,-11.1704129688,0.04,0,0,0,0.04,0,0,0,0.04,1
1.55619146524581E+018,588,1.55619146524544E+018,base_imu_link,0.5031659627,0.8636529992,0.027768656,-0.0125065107,0.0025,0,0,0,0.0025,0,0,0,0.0025,0.03,0.01,-0.23,0.02,0,0,0,0.02,0,0,0,0.02,0.7611141406,0.1915234375,-10.1074578906,0.04,0,0,0,0.04,0,0,0,0.04,1
1.55619146526609E+018,589,1.55619146526562E+018,base_imu_link,0.5033080065,0.8635465049,0.0277189386,-0.0141472571,0.0025,0,0,0,0.0025,0,0,0,0.0025,0.02,0.01,-0.23,0.02,0,0,0,0.02,0,0,0,0.02,1.1924249219,0.5603975781,-9.8155761719,0.04,0,0,0,0.04,0,0,0,0.04,1
1.55619146528605E+018,590,1.55619146528547E+018,base_imu_link,0.5037041783,0.8631786569,0.0304282833,-0.0166981026,0.0025,0,0,0,0.0025,0,0,0,0.0025,0.03,0.01,-0.21,0.02,0,0,0,0.02,0,0,0,0.02,0.5125167188,-0.8810078125,-10.6103984375,0.04,0,0,0,0.04,0,0,0,0.04,1
1.55619146530587E+018,591,1.55619146530553E+018,base_imu_link,0.5040611905,0.8630729517,0.0257113034,-0.0191396209,0.0025,0,0,0,0.0025,0,0,0,0.0025,0.01,0.02,-0.22,0.02,0,0,0,0.02,0,0,0,0.02,0.7132332813,0.5795499219,-10.1361864062,0.04,0,0,0,0.04,0,0,0,0.04,1
1.55619146532594E+018,592,1.55619146532542E+018,base_imu_link,0.5044637792,0.8627937836,0.0273074098,-0.018907346,0.0025,0,0,0,0.0025,0,0,0,0.0025,0.02,0.01,-0.21,0.02,0,0,0,0.02,0,0,0,0.02,-0.3688741406,-0.8810078125,-11.261578125,0.04,0,0,0,0.04,0,0,0,0.04,1
1.55619146534572E+018,593,1.55619146534533E+018,base_imu_link,0.5049993413,0.8626640435,0.0215887786,-0.0178979887,0.0025,0,0,0,0.0025,0,0,0,0.0025,0.02,0,-0.22,0.02,0,0,0,0.02,0,0,0,0.02,0.2394042969,-0.2585566406,-10.6103984375,0.04,0,0,0,0.04,0,0,0,0.04,1
1.55619146536592E+018,594,1.55619146536542E+018,base_imu_link,0.5054230027,0.8624773836,0.0191619297,-0.0176966554,0.0025,0,0,0,0.0025,0,0,0,0.0025,0.01,0,-0.22,0.02,0,0,0,0.02,0,0,0,0.02,0.842703125,1.0487823438,-10.2943847656,0.04,0,0,0,0.04,0,0,0,0.04,1
1.55619146538593E+018,595,1.55619146538538E+018,base_imu_link,0.5055599167,0.862314827,0.0232111977,-0.0168389467,0.0025,0,0,0,0.0025,0,0,0,0.0025,0.04,-0.02,-0.21,0.02,0,0,0,0.02,0,0,0,0.02,0.229828125,-0.6799082031,-12.0468242187,0.04,0,0,0,0.04,0,0,0,0.04,1
1.55619146540564E+018,596,1.55619146540522E+018,base_imu_link,0.5055952005,0.8623673638,0.0201745222,-0.0170003481,0.0025,0,0,0,0.0025,0,0,0,0.0025,0.01,-0.03,-0.24,0.02,0,0,0,0.02,0,0,0,0.02,0.9434444531,2.1354863281,-10.5671141406,0.04,0,0,0,0.04,0,0,0,0.04,1
1.55619146542828E+018,597,1.55619146542793E+018,base_imu_link,0.5054153135,0.8623165334,0.0276781729,-0.0141235906,0.0025,0,0,0,0.0025,0,0,0,0.0025,0.03,-0.04,-0.23,0.02,0,0,0,0.02,0,0,0,0.02,0.8235507813,0.5841464844,-9.9542391406,0.04,0,0,0,0.04,0,0,0,0.04,1
1.55619146544535E+018,598,1.55619146544504E+018,base_imu_link,0.5052074364,0.8623804427,0.0292250751,-0.0145366165,0.0025,0,0,0,0.0025,0,0,0,0.0025,0.03,-0.04,-0.24,0.02,0,0,0,0.02,0,0,0,0.02,0.9338682813,0.4692324219,-9.4995625,0.04,0,0,0,0.04,0,0,0,0.04,1
1.55619146546534E+018,599,1.55619146546506E+018,base_imu_link,0.505219239,0.8623036814,0.0306320686,-0.0157339748,0.0025,0,0,0,0.0025,0,0,0,0.0025,0.02,-0.03,-0.24,0.02,0,0,0,0.02,0,0,0,0.02,-0.2060792188,0.3064375,-10.7923457031,0.04,0,0,0,0.04,0,0,0,0.04,1
1.55619146548521E+018,600,1.55619146548492E+018,base_imu_link,0.5052797344,0.8623948799,0.0283330944,-0.0128334319,0.0025,0,0,0,0.0025,0,0,0,0.0025,0.03,-0.02,-0.25,0.02,0,0,0,0.02,0,0,0,0.02,0.8859874219,-0.7036571094,-9.8776297656,0.04,0,0,0,0.04,0,0,0,0.04,1
1.55619146550528E+018,601,1.55619146550501E+018,base_imu_link,0.5055011924,0.862306374,0.0246286534,-0.0170203209,0.0025,0,0,0,0.0025,0,0,0,0.0025,0.01,-0.01,-0.25,0.02,0,0,0,0.02,0,0,0,0.02,0.87641125,1.0438027344,-10.3277098438,0.04,0,0,0,0.04,0,0,0,0.04,1
1.5561914655253E+018,602,1.55619146552502E+018,base_imu_link,0.5054806472,0.8622168168,0.028266644,-0.0165067562,0.0025,0,0,0,0.0025,0,0,0,0.0025,0.04,-0.01,-0.24,0.02,0,0,0,0.02,0,0,0,0.02,1.0679346875,-1.1970214844,-9.5619991406,0.04,0,0,0,0.04,0,0,0,0.04,1
1.55619146554528E+018,603,1.55619146554506E+018,base_imu_link,0.5057678877,0.8620672733,0.0229029695,-0.0226784925,0.0025,0,0,0,0.0025,0,0,0,0.0025,0.02,-0.01,-0.25,0.02,0,0,0,0.02,0,0,0,0.02,1.02963,0.5316690625,-10.3231132812,0.04,0,0,0,0.04,0,0,0,0.04,1
1.55619146556515E+018,604,1.55619146556492E+018,base_imu_link,0.5059358049,0.8618894092,0.0249925571,-0.0234729562,0.0025,0,0,0,0.0025,0,0,0,0.0025,0.04,-0.01,-0.23,0.02,0,0,0,0.02,0,0,0,0.02,0.45965625,-1.0629550781,-9.925510625,0.04,0,0,0,0.04,0,0,0,0.04,1
1.55619146558524E+018,605,1.55619146558497E+018,base_imu_link,0.5063155129,0.8617504515,0.0190319221,-0.025856268,0.0025,0,0,0,0.0025,0,0,0,0.0025,0.03,0,-0.24,0.02,0,0,0,0.02,0,0,0,0.02,0.8714316406,0.6749285938,-9.9063582813,0.04,0,0,0,0.04,0,0,0,0.04,1
1.55619146560502E+018,606,1.55619146560469E+018,base_imu_link,0.5067501789,0.8614329259,0.0221428423,-0.0254414015,0.0025,0,0,0,0.0025,0,0,0,0.0025,0.03,0,-0.23,0.02,0,0,0,0.02,0,0,0,0.02,0.3638945313,-0.1436425781,-9.9783710938,0.04,0,0,0,0.04,0,0,0,0.04,1
1.55619146562514E+018,607,1.5561914656249E+018,base_imu_link,0.5070298714,0.8613302923,0.0201664316,-0.0249830362,0.0025,0,0,0,0.0025,0,0,0,0.0025,0.03,0.01,-0.23,0.02,0,0,0,0.02,0,0,0,0.02,0.9051397656,0.0528604688,-10.0404246875,0.04,0,0,0,0.04,0,0,0,0.04,1
1.55619146564514E+018,608,1.55619146564482E+018,base_imu_link,0.5074542874,0.8610295487,0.0205871521,-0.0263520708,0.0025,0,0,0,0.0025,0,0,0,0.0025,0.03,0,-0.22,0.02,0,0,0,0.02,0,0,0,0.02,0.1673914844,-0.340145625,-9.9209140625,0.04,0,0,0,0.04,0,0,0,0.04,1
1.5561914656649E+018,609,1.55619146566467E+018,base_imu_link,0.5078802304,0.8608741309,0.0175266624,-0.0254208258,0.0025,0,0,0,0.0025,0,0,0,0.0025,0.02,0.01,-0.23,0.02,0,0,0,0.02,0,0,0,0.02,0.8331269531,0.0478808594,-8.6522628125,0.04,0,0,0,0.04,0,0,0,0.04,1
1.55619146568864E+018,610,1.55619146568741E+018,base_imu_link,0.5080883778,0.8607067362,0.0181539304,-0.0264678944,0.0025,0,0,0,0.0025,0,0,0,0.0025,0.02,0,-0.23,0.02,0,0,0,0.02,0,0,0,0.02,-0.2394042969,-0.0624366406,-11.1991414844,0.04,0,0,0,0.04,0,0,0,0.04,1
1.55619146571203E+018,611,1.55619146571111E+018,base_imu_link,0.5082754872,0.8607199882,0.0160092168,-0.023681978,0.0025,0,0,0,0.0025,0,0,0,0.0025,0.01,0,-0.24,0.02,0,0,0,0.02,0,0,0,0.02,1.1204121094,0.26353625,-10.0308485156,0.04,0,0,0,0.04,0,0,0,0.04,1
1.55619146572497E+018,612,1.55619146572469E+018,base_imu_link,0.5083449468,0.8605817345,0.0184376243,-0.0253879386,0.0025,0,0,0,0.0025,0,0,0,0.0025,0.01,0,-0.24,0.02,0,0,0,0.02,0,0,0,0.02,0.2060792188,0.3160136719,-11.2232734375,0.04,0,0,0,0.04,0,0,0,0.04,1
1.55619146574491E+018,613,1.55619146574465E+018,base_imu_link,0.508391145,0.8606151411,0.0183324351,-0.023322616,0.0025,0,0,0,0.0025,0,0,0,0.0025,0.02,0,-0.24,0.02,0,0,0,0.02,0,0,0,0.02,0.4454835156,-0.7806495313,-9.9063582813,0.04,0,0,0,0.04,0,0,0,0.04,1
1.55619146576493E+018,614,1.55619146576465E+018,base_imu_link,-0.5085998746,-0.8605242723,-0.0143811568,0.0248460589,0.0025,0,0,0,0.0025,0,0,0,0.0025,0,0,-0.25,0.02,0,0,0,0.02,0,0,0,0.02,-0.04290125,1.0533789063,-10.691604375,0.04,0,0,0,0.04,0,0,0,0.04,1
1.55619146578499E+018,615,1.55619146578467E+018,base_imu_link,0.5086582213,0.8605656065,0.0168333891,-0.0202555632,0.0025,0,0,0,0.0025,0,0,0,0.0025,0.02,0,-0.24,0.02,0,0,0,0.02,0,0,0,0.02,0.3305694531,-1.1778691406,-10.2752324219,0.04,0,0,0,0.04,0,0,0,0.04,1
1.55619146580745E+018,616,1.55619146580671E+018,base_imu_link,-0.5087709563,-0.8605336298,-0.0114386633,0.0224308484,0.0025,0,0,0,0.0025,0,0,0,0.0025,0,0,-0.25,0.02,0,0,0,0.02,0,0,0,0.02,0.1915234375,1.0104776563,-10.6295507812,0.04,0,0,0,0.04,0,0,0,0.04,1
1.55619146582954E+018,617,1.55619146582906E+018,base_imu_link,0.5085049705,0.8607294756,0.0145054266,-0.0188959638,0.0025,0,0,0,0.0025,0,0,0,0.0025,0.02,-0.01,-0.24,0.02,0,0,0,0.02,0,0,0,0.02,-0.0145557813,-0.7086367188,-10.2606766406,0.04,0,0,0,0.04,0,0,0,0.04,1
1.55619146584475E+018,618,1.55619146584451E+018,base_imu_link,-0.5083863272,-0.8608634087,-0.0102703842,0.0187630759,0.0025,0,0,0,0.0025,0,0,0,0.0025,0.01,0,-0.25,0.02,0,0,0,0.02,0,0,0,0.02,0.9721729688,0.1578153125,-10.0549804687,0.04,0,0,0,0.04,0,0,0,0.04,1
1.55619146586469E+018,619,1.55619146586444E+018,base_imu_link,0.5082965228,0.86084529,0.012395125,-0.0206492747,0.0025,0,0,0,0.0025,0,0,0,0.0025,0.01,0,-0.24,0.02,0,0,0,0.02,0,0,0,0.02,0.2681328125,0.1723710938,-10.9022801562,0.04,0,0,0,0.04,0,0,0,0.04,1
1.55619146588513E+018,620,1.55619146588464E+018,base_imu_link,0.5080176809,0.861035917,0.0123511155,-0.0195610695,0.0025,0,0,0,0.0025,0,0,0,0.0025,0.02,0,-0.24,0.02,0,0,0,0.02,0,0,0,0.02,0.8714316406,-1.0583585156,-10.4571796875,0.04,0,0,0,0.04,0,0,0,0.04,1
1.55619146590761E+018,621,1.55619146590708E+018,base_imu_link,-0.5078945926,-0.8610512438,-0.0092553515,0.0234131756,0.0025,0,0,0,0.0025,0,0,0,0.0025,0,0,-0.25,0.02,0,0,0,0.02,0,0,0,0.02,0.3784503125,0.9721729688,-11.1321082812,0.04,0,0,0,0.04,0,0,0,0.04,1
1.55619146592745E+018,622,1.55619146592654E+018,base_imu_link,-0.5076155773,-0.8612445731,-0.0122728855,0.0208227575,0.0025,0,0,0,0.0025,0,0,0,0.0025,0.02,-0.01,-0.23,0.02,0,0,0,0.02,0,0,0,0.02,0.4359073438,-0.8235507813,-10.9838691406,0.04,0,0,0,0.04,0,0,0,0.04,1
1.55619146594921E+018,623,1.55619146594874E+018,base_imu_link,-0.5073260588,-0.8614167309,-0.0094284294,0.0221943797,0.0025,0,0,0,0.0025,0,0,0,0.0025,0,0,-0.25,0.02,0,0,0,0.02,0,0,0,0.02,2.2841085156,0.9147159375,-9.1597999219,0.04,0,0,0,0.04,0,0,0,0.04,1
1.55619146596466E+018,624,1.55619146596437E+018,base_imu_link,0.5070107161,0.8613136113,0.0180687253,-0.0274320597,0.0025,0,0,0,0.0025,0,0,0,0.0025,0.01,-0.01,-0.24,0.02,0,0,0,0.02,0,0,0,0.02,0.5125167188,0.0191523438,-10.5625175781,0.04,0,0,0,0.04,0,0,0,0.04,1
1.55619146598452E+018,625,1.55619146598427E+018,base_imu_link,0.5068721683,0.8614246901,0.0176659181,-0.0267586175,0.0025,0,0,0,0.0025,0,0,0,0.0025,0.01,-0.01,-0.24,0.02,0,0,0,0.02,0,0,0,0.02,-0.2156553906,-0.6845047656,-10.5337890625,0.04,0,0,0,0.04,0,0,0,0.04,1
1.55619146600476E+018,626,1.55619146600414E+018,base_imu_link,-0.5074561956,-0.8612183856,-0.0131367545,0.0248702123,0.0025,0,0,0,0.0025,0,0,0,0.0025,0,-0.01,-0.25,0.02,0,0,0,0.02,0,0,0,0.02,1.0150742188,0.612875,-10.078729375,0.04,0,0,0,0.04,0,0,0,0.04,1
1.55619146602487E+018,627,1.55619146602455E+018,base_imu_link,0.507575887,0.8610731627,0.0168763655,-0.0251975317,0.0025,0,0,0,0.0025,0,0,0,0.0025,0.01,-0.01,-0.24,0.02,0,0,0,0.02,0,0,0,0.02,1.1732725781,-0.3114171094,-10.0837089844,0.04,0,0,0,0.04,0,0,0,0.04,1
1.55619146604806E+018,628,1.55619146604766E+018,base_imu_link,0.5076429102,0.8609360696,0.0169016509,-0.0283212617,0.0025,0,0,0,0.0025,0,0,0,0.0025,0.01,-0.01,-0.24,0.02,0,0,0,0.02,0,0,0,0.02,-0.1244902344,0.3018409375,-10.7873660937,0.04,0,0,0,0.04,0,0,0,0.04,1
1.55619146606997E+018,629,1.55619146606838E+018,base_imu_link,0.5078022475,0.8609645829,0.0162279765,-0.0247692773,0.0025,0,0,0,0.0025,0,0,0,0.0025,0.02,0,-0.24,0.02,0,0,0,0.02,0,0,0,0.02,0.8522792969,-0.4454835156,-10.2943847656,0.04,0,0,0,0.04,0,0,0,0.04,1
1.55619146608525E+018,630,1.55619146608496E+018,base_imu_link,-0.5080317057,-0.8607903423,-0.0150101538,0.026804252,0.0025,0,0,0,0.0025,0,0,0,0.0025,0.01,0,-0.25,0.02,0,0,0,0.02,0,0,0,0.02,1.1108359375,0.3497217969,-9.3750722656,0.04,0,0,0,0.04,0,0,0,0.04,1
1.55619146610505E+018,631,1.55619146610419E+018,base_imu_link,0.5080374632,0.8606892462,0.017842434,-0.028170995,0.0025,0,0,0,0.0025,0,0,0,0.0025,0.01,0,-0.24,0.02,0,0,0,0.02,0,0,0,0.02,-0.0237489063,0.0812059375,-10.6295507812,0.04,0,0,0,0.04,0,0,0,0.04,1
1.55619146612454E+018,632,1.55619146612422E+018,base_imu_link,0.5083183003,0.8606357376,0.0165979305,-0.0253602328,0.0025,0,0,0,0.0025,0,0,0,0.0025,0.01,0.01,-0.24,0.02,0,0,0,0.02,0,0,0,0.02,1.1682929688,-0.8668350781,-9.7247940625,0.04,0,0,0,0.04,0,0,0,0.04,1
1.55619146614436E+018,633,1.5561914661441E+018,base_imu_link,-0.5086668916,-0.8603092471,-0.0143829579,0.0303170459,0.0025,0,0,0,0.0025,0,0,0,0.0025,-0.01,0.01,-0.25,0.02,0,0,0,0.02,0,0,0,0.02,0.7182128906,0.6366239063,-10.57209375,0.04,0,0,0,0.04,0,0,0,0.04,1
1.55619146616657E+018,634,1.55619146616595E+018,base_imu_link,0.5087576979,0.8602507391,0.0172938859,-0.0288996927,0.0025,0,0,0,0.0025,0,0,0,0.0025,0,0.01,-0.24,0.02,0,0,0,0.02,0,0,0,0.02,1.1636964063,-0.0624366406,-10.0837089844,0.04,0,0,0,0.04,0,0,0,0.04,1
1.55619146618895E+018,635,1.55619146618817E+018,base_imu_link,0.5089344147,0.8600471349,0.0183949472,-0.0310855803,0.0025,0,0,0,0.0025,0,0,0,0.0025,0,0.01,-0.24,0.02,0,0,0,0.02,0,0,0,0.02,0.4117753906,-0.7036571094,-10.4522000781,0.04,0,0,0,0.04,0,0,0,0.04,1
1.55619146621043E+018,636,1.55619146621003E+018,base_imu_link,-0.5094700325,-0.8597791099,-0.0152737302,0.0314146672,0.0025,0,0,0,0.0025,0,0,0,0.0025,-0.01,0.01,-0.24,0.02,0,0,0,0.02,0,0,0,0.02,1.1204121094,0.0574570313,-9.882609375,0.04,0,0,0,0.04,0,0,0,0.04,1
1.55619146622417E+018,637,1.5561914662239E+018,base_imu_link,-0.5098221348,-0.8594740451,-0.0171641276,0.0330325494,0.0025,0,0,0,0.0025,0,0,0,0.0025,0,0.01,-0.24,0.02,0,0,0,0.02,0,0,0,0.02,0.842703125,-0.3638945313,-10.3614179687,0.04,0,0,0,0.04,0,0,0,0.04,1
1.55619146624422E+018,638,1.55619146624392E+018,base_imu_link,-0.5101468016,-0.8592585707,-0.0163514415,0.0340232255,0.0025,0,0,0,0.0025,0,0,0,0.0025,-0.01,0.01,-0.25,0.02,0,0,0,0.02,0,0,0,0.02,0.3064375,0.9817491406,-10.7586375781,0.04,0,0,0,0.04,0,0,0,0.04,1
1.55619146626411E+018,639,1.55619146626389E+018,base_imu_link,0.5105562756,0.8591063033,0.0192341892,-0.0299782432,0.0025,0,0,0,0.0025,0,0,0,0.0025,0.01,0,-0.23,0.02,0,0,0,0.02,0,0,0,0.02,0.2922647656,-0.8093780469,-10.6008222656,0.04,0,0,0,0.04,0,0,0,0.04,1
1.55619146628661E+018,640,1.55619146628603E+018,base_imu_link,-0.5110859615,-0.8588665573,-0.0152759623,0.0301001936,0.0025,0,0,0,0.0025,0,0,0,0.0025,0,0,-0.24,0.02,0,0,0,0.02,0,0,0,0.02,0.9625967969,-0.0670332031,-10.801921875,0.04,0,0,0,0.04,0,0,0,0.04,1
1.55619146630973E+018,641,1.55619146630639E+018,base_imu_link,-0.5114456942,-0.8586111434,-0.0159746801,0.0309033325,0.0025,0,0,0,0.0025,0,0,0,0.0025,0,0,-0.24,0.02,0,0,0,0.02,0,0,0,0.02,0.8189542188,0.689484375,-10.5242128906,0.04,0,0,0,0.04,0,0,0,0.04,1
1.55619146632396E+018,642,1.55619146632373E+018,base_imu_link,0.5115380154,0.8585400774,0.0190450196,-0.0295817783,0.0025,0,0,0,0.0025,0,0,0,0.0025,0.01,-0.01,-0.24,0.02,0,0,0,0.02,0,0,0,0.02,0.76609375,-0.0624366406,-10.6295507812,0.04,0,0,0,0.04,0,0,0,0.04,1
1.55619146634392E+018,643,1.55619146634369E+018,base_imu_link,0.5117560985,0.8584067542,0.0189475967,-0.0297410238,0.0025,0,0,0,0.0025,0,0,0,0.0025,0,-0.01,-0.24,0.02,0,0,0,0.02,0,0,0,0.02,0.2681328125,0.2968613281,-10.2989813281,0.04,0,0,0,0.04,0,0,0,0.04,1
1.55619146636392E+018,644,1.55619146636363E+018,base_imu_link,0.5122052269,0.8582227905,0.0190416935,-0.0271451894,0.0025,0,0,0,0.0025,0,0,0,0.0025,0.01,-0.01,-0.24,0.02,0,0,0,0.02,0,0,0,0.02,1.0342265625,-0.6270477344,-10.4092988281,0.04,0,0,0,0.04,0,0,0,0.04,1
1.55619146638412E+018,645,1.55619146638385E+018,base_imu_link,-0.5126987381,-0.857869513,-0.0174703567,0.0299113562,0.0025,0,0,0,0.0025,0,0,0,0.0025,-0.01,-0.01,-0.25,0.02,0,0,0,0.02,0,0,0,0.02,1.2786104688,1.0916835938,-10.1744910937,0.04,0,0,0,0.04,0,0,0,0.04,1
1.55619146640766E+018,646,1.55619146640675E+018,base_imu_link,0.5128858668,0.8576341877,0.023306259,-0.0294704261,0.0025,0,0,0,0.0025,0,0,0,0.0025,0.01,-0.01,-0.24,0.02,0,0,0,0.02,0,0,0,0.02,0.5987022656,-0.5937226563,-10.1649149219,0.04,0,0,0,0.04,0,0,0,0.04,1
1.55619146643578E+018,647,1.55619146642809E+018,base_imu_link,0.5134046156,0.8573733181,0.0201855779,-0.0303189145,0.0025,0,0,0,0.0025,0,0,0,0.0025,0,-0.01,-0.24,0.02,0,0,0,0.02,0,0,0,0.02,0.3543183594,-0.0907821094,-10.2511004687,0.04,0,0,0,0.04,0,0,0,0.04,1
1.55619146644387E+018,648,1.55619146644348E+018,base_imu_link,0.5140225993,0.8570830358,0.0188461259,-0.028883572,0.0025,0,0,0,0.0025,0,0,0,0.0025,0,-0.01,-0.24,0.02,0,0,0,0.02,0,0,0,0.02,0.1673914844,0.6462000781,-11.1608367969,0.04,0,0,0,0.04,0,0,0,0.04,1
1.55619146646416E+018,649,1.5561914664638E+018,base_imu_link,0.5144949251,0.8568809715,0.0197107573,-0.0257188399,0.0025,0,0,0,0.0025,0,0,0,0.0025,0.01,-0.01,-0.24,0.02,0,0,0,0.02,0,0,0,0.02,0.5075371094,-0.5508214063,-9.8776297656,0.04,0,0,0,0.04,0,0,0,0.04,1
1.55619146648376E+018,650,1.55619146648338E+018,base_imu_link,0.5150245606,0.8565994944,0.016708055,-0.0266054337,0.0025,0,0,0,0.0025,0,0,0,0.0025,0,-0.01,-0.24,0.02,0,0,0,0.02,0,0,0,0.02,1.1636964063,0.7948222656,-10.3231132812,0.04,0,0,0,0.04,0,0,0,0.04,1
1.5561914665038E+018,651,1.55619146650343E+018,base_imu_link,0.5152348197,0.8563734303,0.0209905913,-0.0267772951,0.0025,0,0,0,0.0025,0,0,0,0.0025,0.02,-0.01,-0.23,0.02,0,0,0,0.02,0,0,0,0.02,0.3160136719,-0.45965625,-10.3277098438,0.04,0,0,0,0.04,0,0,0,0.04,1
1.5561914665265E+018,652,1.55619146652549E+018,base_imu_link,0.515645825,0.8562079886,0.0179229403,-0.0263824094,0.0025,0,0,0,0.0025,0,0,0,0.0025,0.01,-0.01,-0.24,0.02,0,0,0,0.02,0,0,0,0.02,0.4883847656,0.5603975781,-10.6870078125,0.04,0,0,0,0.04,0,0,0,0.04,1
1.5561914665492E+018,653,1.55619146654838E+018,base_imu_link,0.5159353537,0.8560587407,0.0192727077,-0.0245500739,0.0025,0,0,0,0.0025,0,0,0,0.0025,0.03,-0.02,-0.24,0.02,0,0,0,0.02,0,0,0,0.02,0.7806495313,-0.1965030469,-9.9879472656,0.04,0,0,0,0.04,0,0,0,0.04,1
1.5561914665637E+018,654,1.55619146656345E+018,base_imu_link,0.5161895388,0.8558850734,0.0184465059,-0.0258617022,0.0025,0,0,0,0.0025,0,0,0,0.0025,0.02,-0.02,-0.24,0.02,0,0,0,0.02,0,0,0,0.02,0.9384648438,0.45965625,-9.8730332031,0.04,0,0,0,0.04,0,0,0,0.04,1
1.55619146658388E+018,655,1.55619146658363E+018,base_imu_link,0.5162982236,0.8557620291,0.0208420268,-0.0259442424,0.0025,0,0,0,0.0025,0,0,0,0.0025,0.03,-0.03,-0.24,0.02,0,0,0,0.02,0,0,0,0.02,0.1103175,0.2202519531,-11.2853270312,0.04,0,0,0,0.04,0,0,0,0.04,1
1.55619146660426E+018,656,1.55619146660356E+018,base_imu_link,0.5165602825,0.8556962244,0.0197662334,-0.0236377279,0.0025,0,0,0,0.0025,0,0,0,0.0025,0.03,-0.03,-0.24,0.02,0,0,0,0.02,0,0,0,0.02,0.9576171875,-0.1294698438,-9.9638153125,0.04,0,0,0,0.04,0,0,0,0.04,1
1.55619146662415E+018,657,1.55619146662374E+018,base_imu_link,0.5168881293,0.8554460188,0.0196923222,-0.0255143725,0.0025,0,0,0,0.0025,0,0,0,0.0025,0.02,-0.03,-0.24,0.02,0,0,0,0.02,0,0,0,0.02,0.5029405469,0.7852460938,-10.495484375,0.04,0,0,0,0.04,0,0,0,0.04,1
1.55619146664634E+018,658,1.55619146664577E+018,base_imu_link,0.5171219597,0.8553254052,0.0216934277,-0.0230808399,0.0025,0,0,0,0.0025,0,0,0,0.0025,0.04,-0.03,-0.23,0.02,0,0,0,0.02,0,0,0,0.02,0.3734707031,-0.4359073438,-10.495484375,0.04,0,0,0,0.04,0,0,0,0.04,1
1.55619146666588E+018,659,1.55619146666546E+018,base_imu_link,0.5172997728,0.8552869607,0.0186187665,-0.0232056333,0.0025,0,0,0,0.0025,0,0,0,0.0025,0.03,-0.03,-0.24,0.02,0,0,0,0.02,0,0,0,0.02,-0.0812059375,0.1198936719,-9.9304902344,0.04,0,0,0,0.04,0,0,0,0.04,1
1.55619146668322E+018,660,1.55619146668298E+018,base_imu_link,0.5175647176,0.8552421125,0.0168484081,-0.0200953533,0.0025,0,0,0,0.0025,0,0,0,0.0025,0.03,-0.03,-0.24,0.02,0,0,0,0.02,0,0,0,0.02,-0.2394042969,0,-10.385166875,0.04,0,0,0,0.04,0,0,0,0.04,1
1.5561914667058E+018,661,1.55619146670337E+018,base_imu_link,0.5178142645,0.8552010509,0.0144182868,-0.0170781436,0.0025,0,0,0,0.0025,0,0,0,0.0025,0.03,-0.03,-0.24,0.02,0,0,0,0.02,0,0,0,0.02,-0.4213515625,0.0957617188,-10.9022801562,0.04,0,0,0,0.04,0,0,0,0.04,1
1.55619146672337E+018,662,1.55619146672312E+018,base_imu_link,0.517916881,0.8552316007,0.0123118109,-0.0137634564,0.0025,0,0,0,0.0025,0,0,0,0.0025,0.03,-0.03,-0.24,0.02,0,0,0,0.02,0,0,0,0.02,0.0478808594,-0.1965030469,-10.4043192187,0.04,0,0,0,0.04,0,0,0,0.04,1
1.55619146674383E+018,663,1.55619146674357E+018,base_imu_link,0.5178351429,0.85532076,0.010212728,-0.0129947059,0.0025,0,0,0,0.0025,0,0,0,0.0025,0.03,-0.03,-0.24,0.02,0,0,0,0.02,0,0,0,0.02,0.0287285156,-0.0720128125,-10.2081992187,0.04,0,0,0,0.04,0,0,0,0.04,1
1.5561914667634E+018,664,1.55619146676297E+018,base_imu_link,0.5176114234,0.8554879539,0.0086046228,-0.0120306109,0.0025,0,0,0,0.0025,0,0,0,0.0025,0.04,-0.03,-0.23,0.02,0,0,0,0.02,0,0,0,0.02,0.0049796094,-0.6270477344,-10.5479617969,0.04,0,0,0,0.04,0,0,0,0.04,1
1.55619146678372E+018,665,1.55619146678296E+018,base_imu_link,-0.5172885985,-0.8557076131,-0.0052489558,0.0122243689,0.0025,0,0,0,0.0025,0,0,0,0.0025,0.02,-0.03,-0.24,0.02,0,0,0,0.02,0,0,0,0.02,0,0.65577625,-10.2848085937,0.04,0,0,0,0.04,0,0,0,0.04,1
1.55619146680479E+018,666,1.55619146680434E+018,base_imu_link,0.5169572749,0.8559305771,0.0070163198,-0.0094230802,0.0025,0,0,0,0.0025,0,0,0,0.0025,0.04,-0.02,-0.23,0.02,0,0,0,0.02,0,0,0,0.02,0.416755,-0.3926230469,-10.1649149219,0.04,0,0,0,0.04,0,0,0,0.04,1
1.55619146682332E+018,667,1.55619146682309E+018,base_imu_link,-0.516481301,-0.8562080526,-0.0054292998,0.0111963877,0.0025,0,0,0,0.0025,0,0,0,0.0025,0.03,-0.02,-0.23,0.02,0,0,0,0.02,0,0,0,0.02,0.0574570313,-0.4883847656,-10.2848085937,0.04,0,0,0,0.04,0,0,0,0.04,1
1.55619146684323E+018,668,1.55619146684294E+018,base_imu_link,-0.5160136384,-0.8564977709,-0.0027902117,0.0115632286,0.0025,0,0,0,0.0025,0,0,0,0.0025,0.03,-0.02,-0.24,0.02,0,0,0,0.02,0,0,0,0.02,0.2922647656,-0.1723710938,-10.0691532031,0.04,0,0,0,0.04,0,0,0,0.04,1
1.55619146686315E+018,669,1.55619146686292E+018,base_imu_link,-0.5154804699,-0.8568132352,-0.0022749619,0.0120743416,0.0025,0,0,0,0.0025,0,0,0,0.0025,0.03,-0.02,-0.23,0.02,0,0,0,0.02,0,0,0,0.02,-0.2922647656,-0.0670332031,-10.3660145312,0.04,0,0,0,0.04,0,0,0,0.04,1
1.55619146688309E+018,670,1.55619146688285E+018,base_imu_link,-0.5149787498,-0.8571447146,-0.0008893504,0.0099516042,0.0025,0,0,0,0.0025,0,0,0,0.0025,0.03,-0.01,-0.23,0.02,0,0,0,0.02,0,0,0,0.02,0.0528604688,-0.9097363281,-10.2081992187,0.04,0,0,0,0.04,0,0,0,0.04,1
1.55619146690322E+018,671,1.55619146690292E+018,base_imu_link,-0.5143442472,-0.8575028251,0.0027992742,0.0114483343,0.0025,0,0,0,0.0025,0,0,0,0.0025,0.01,-0.01,-0.24,0.02,0,0,0,0.02,0,0,0,0.02,0.5171132813,0.2731124219,-10.0883055469,0.04,0,0,0,0.04,0,0,0,0.04,1
1.55619146692317E+018,672,1.55619146692292E+018,base_imu_link,-0.513750631,-0.8578578603,0.0002334133,0.011837492,0.0025,0,0,0,0.0025,0,0,0,0.0025,0.02,-0.01,-0.23,0.02,0,0,0,0.02,0,0,0,0.02,-0.076609375,-0.7228094531,-10.8976835937,0.04,0,0,0,0.04,0,0,0,0.04,1
1.55619146694306E+018,673,1.55619146694283E+018,base_imu_link,-0.513061321,-0.8582623298,0.0028471389,0.0120726094,0.0025,0,0,0,0.0025,0,0,0,0.0025,0,0,-0.24,0.02,0,0,0,0.02,0,0,0,0.02,0.6845047656,0.15321875,-10.3039609375,0.04,0,0,0,0.04,0,0,0,0.04,1
1.55619146696313E+018,674,1.5561914669628E+018,base_imu_link,-0.5123767388,-0.8586560371,0.000330451,0.0134081421,0.0025,0,0,0,0.0025,0,0,0,0.0025,0.01,0,-0.23,0.02,0,0,0,0.02,0,0,0,0.02,0.1244902344,-0.9338682813,-10.189046875,0.04,0,0,0,0.04,0,0,0,0.04,1
1.55619146698289E+018,675,1.55619146698268E+018,base_imu_link,-0.5116548548,-0.8590525884,0.0036682578,0.0149834482,0.0025,0,0,0,0.0025,0,0,0,0.0025,0,0.01,-0.24,0.02,0,0,0,0.02,0,0,0,0.02,0.4837882031,-0.1007413281,-10.7203328906,0.04,0,0,0,0.04,0,0,0,0.04,1
1.55619146700325E+018,676,1.55619146700287E+018,base_imu_link,-0.511122451,-0.8593614756,0.0024527476,0.01567413,0.0025,0,0,0,0.0025,0,0,0,0.0025,-0.01,0.01,-0.24,0.02,0,0,0,0.02,0,0,0,0.02,-0.4021992188,0.1103175,-10.6199746094,0.04,0,0,0,0.04,0,0,0,0.04,1
1.55619146702312E+018,677,1.55619146702278E+018,base_imu_link,-0.5105790957,-0.8597338075,0.0025253433,0.0126645115,0.0025,0,0,0,0.0025,0,0,0,0.0025,0,0.01,-0.24,0.02,0,0,0,0.02,0,0,0,0.02,0.15321875,-0.1294698438,-10.1744910937,0.04,0,0,0,0.04,0,0,0,0.04,1
1.55619146704356E+018,678,1.55619146704279E+018,base_imu_link,-0.5102104355,-0.8599578821,0.0022001779,0.0123657503,0.0025,0,0,0,0.0025,0,0,0,0.0025,-0.01,0.01,-0.24,0.02,0,0,0,0.02,0,0,0,0.02,0.0574570313,0.3880264844,-10.8593789062,0.04,0,0,0,0.04,0,0,0,0.04,1
1.55619146706297E+018,679,1.55619146706273E+018,base_imu_link,-0.509717002,-0.8602743934,0.000403211,0.0107881128,0.0025,0,0,0,0.0025,0,0,0,0.0025,0,0,-0.23,0.02,0,0,0,0.02,0,0,0,0.02,-0.1965030469,-0.2348077344,-9.8155761719,0.04,0,0,0,0.04,0,0,0,0.04,1
1.55619146708277E+018,680,1.55619146708244E+018,base_imu_link,-0.5092049554,-0.8605926064,0.0017630568,0.0093579271,0.0025,0,0,0,0.0025,0,0,0,0.0025,-0.01,0,-0.23,0.02,0,0,0,0.02,0,0,0,0.02,-0.1578153125,0.2156553906,-10.5146367187,0.04,0,0,0,0.04,0,0,0,0.04,1
1.55619146710285E+018,681,1.55619146710255E+018,base_imu_link,-0.5087028643,-0.8609094062,0.0010824205,0.0074309214,0.0025,0,0,0,0.0025,0,0,0,0.0025,0,0,-0.23,0.02,0,0,0,0.02,0,0,0,0.02,0.1578153125,0.3064375,-9.9829676563,0.04,0,0,0,0.04,0,0,0,0.04,1
1.55619146712273E+018,682,1.55619146712242E+018,base_imu_link,-0.5082649803,-0.8611754381,-0.000730894,0.0065605129,0.0025,0,0,0,0.0025,0,0,0,0.0025,0,-0.01,-0.23,0.02,0,0,0,0.02,0,0,0,0.02,-0.3976026563,-0.2681328125,-10.7011805469,0.04,0,0,0,0.04,0,0,0,0.04,1
1.55619146714276E+018,683,1.55619146714244E+018,base_imu_link,-0.5075947193,-0.8615799945,0.0012530629,0.0050935152,0.0025,0,0,0,0.0025,0,0,0,0.0025,0.01,-0.01,-0.23,0.02,0,0,0,0.02,0,0,0,0.02,-0.0237489063,0.5891260938,-9.8872059375,0.04,0,0,0,0.04,0,0,0,0.04,1
1.55619146716277E+018,684,1.55619146716248E+018,base_imu_link,-0.5072343374,-0.8618024071,-0.0013679119,0.0028402335,0.0025,0,0,0,0.0025,0,0,0,0.0025,0.01,-0.01,-0.22,0.02,0,0,0,0.02,0,0,0,0.02,-0.0287285156,0.7902257031,-10.8543992969,0.04,0,0,0,0.04,0,0,0,0.04,1
1.55619146718262E+018,685,1.55619146718243E+018,base_imu_link,0.5067888566,0.8620617252,0.0037030992,-0.000961135,0.0025,0,0,0,0.0025,0,0,0,0.0025,0.03,-0.01,-0.21,0.02,0,0,0,0.02,0,0,0,0.02,-0.0237489063,-0.6416035156,-10.2081992187,0.04,0,0,0,0.04,0,0,0,0.04,1
1.5561914672027E+018,686,1.55619146720239E+018,base_imu_link,-0.5063320147,-0.8623353498,-0.0005468128,0.0023100658,0.0025,0,0,0,0.0025,0,0,0,0.0025,0.01,-0.01,-0.22,0.02,0,0,0,0.02,0,0,0,0.02,-0.1673914844,0.6511796875,-10.9072597656,0.04,0,0,0,0.04,0,0,0,0.04,1
1.55619146722268E+018,687,1.55619146722242E+018,base_imu_link,0.5058840215,0.8625983756,0.0023182726,-0.0001579163,0.0025,0,0,0,0.0025,0,0,0,0.0025,0.01,-0.01,-0.22,0.02,0,0,0,0.02,0,0,0,0.02,0.9384648438,0.3447421875,-9.84890125,0.04,0,0,0,0.04,0,0,0,0.04,1
1.55619146724288E+018,688,1.55619146724242E+018,base_imu_link,0.5055126824,0.8627917076,0.0060114618,-0.0033555144,0.0025,0,0,0,0.0025,0,0,0,0.0025,0.01,-0.01,-0.21,0.02,0,0,0,0.02,0,0,0,0.02,0.2731124219,0.3543183594,-9.7726749219,0.04,0,0,0,0.04,0,0,0,0.04,1
1.55619146726282E+018,689,1.55619146726243E+018,base_imu_link,0.5052165479,0.8629519271,0.007656052,-0.0034052994,0.0025,0,0,0,0.0025,0,0,0,0.0025,0.01,0,-0.21,0.02,0,0,0,0.02,0,0,0,0.02,0.2443839063,-0.416755,-10.9310086719,0.04,0,0,0,0.04,0,0,0,0.04,1
1.55619146728272E+018,690,1.55619146728237E+018,base_imu_link,0.5051325012,0.8630068928,0.0060686757,-0.0048404917,0.0025,0,0,0,0.0025,0,0,0,0.0025,0,0,-0.21,0.02,0,0,0,0.02,0,0,0,0.02,1.02963,0.3734707031,-10.3660145312,0.04,0,0,0,0.04,0,0,0,0.04,1
1.55619146730245E+018,691,1.5561914673022E+018,base_imu_link,0.5050590305,0.8630000806,0.0093445414,-0.0076756908,0.0025,0,0,0,0.0025,0,0,0,0.0025,0.01,0.01,-0.2,0.02,0,0,0,0.02,0,0,0,0.02,0.9721729688,0.1723710938,-10.5671141406,0.04,0,0,0,0.04,0,0,0,0.04,1
1.55619146732239E+018,692,1.55619146732216E+018,base_imu_link,0.5050528893,0.862951953,0.0113202819,-0.0103613231,0.0025,0,0,0,0.0025,0,0,0,0.0025,0.01,0.01,-0.2,0.02,0,0,0,0.02,0,0,0,0.02,1.1349678906,0.4788085938,-10.1170340625,0.04,0,0,0,0.04,0,0,0,0.04,1
1.55619146734243E+018,693,1.55619146734212E+018,base_imu_link,0.5052844904,0.8627234591,0.0150199621,-0.0130467502,0.0025,0,0,0,0.0025,0,0,0,0.0025,0.01,0.01,-0.19,0.02,0,0,0,0.02,0,0,0,0.02,-0.04290125,0.1915234375,-10.6678554687,0.04,0,0,0,0.04,0,0,0,0.04,1
1.55619146736261E+018,694,1.55619146736227E+018,base_imu_link,0.5055941431,0.8625788092,0.014248885,-0.0113723203,0.0025,0,0,0,0.0025,0,0,0,0.0025,0.01,0.01,-0.2,0.02,0,0,0,0.02,0,0,0,0.02,0.076609375,0.2106757813,-10.1986230469,0.04,0,0,0,0.04,0,0,0,0.04,1
1.55619146738266E+018,695,1.55619146738221E+018,base_imu_link,0.5062030311,0.8622421466,0.0139395899,-0.010132119,0.0025,0,0,0,0.0025,0,0,0,0.0025,0.02,0.01,-0.19,0.02,0,0,0,0.02,0,0,0,0.02,-0.3976026563,-0.5508214063,-10.6724520312,0.04,0,0,0,0.04,0,0,0,0.04,1
1.55619146740249E+018,696,1.55619146740219E+018,base_imu_link,0.5067851303,0.8619689095,0.0099169757,-0.0089489874,0.0025,0,0,0,0.0025,0,0,0,0.0025,0,0,-0.19,0.02,0,0,0,0.02,0,0,0,0.02,0.5075371094,1.1445440625,-9.6049003906,0.04,0,0,0,0.04,0,0,0,0.04,1
1.55619146742221E+018,697,1.55619146742195E+018,base_imu_link,0.5072797276,0.8616144443,0.0153226873,-0.0072830289,0.0025,0,0,0,0.0025,0,0,0,0.0025,0,0,-0.17,0.02,0,0,0,0.02,0,0,0,0.02,0.1103175,-0.033708125,-10.648703125,0.04,0,0,0,0.04,0,0,0,0.04,1
1.55619146744247E+018,698,1.55619146744208E+018,base_imu_link,0.5075735105,0.8614630485,0.0141749892,-0.0070439439,0.0025,0,0,0,0.0025,0,0,0,0.0025,-0.01,0,-0.18,0.02,0,0,0,0.02,0,0,0,0.02,0.0670332031,0.7565175781,-10.0454042969,0.04,0,0,0,0.04,0,0,0,0.04,1
1.55619146746217E+018,699,1.55619146746197E+018,base_imu_link,0.5079642993,0.8612133025,0.016201676,-0.0046286048,0.0025,0,0,0,0.0025,0,0,0,0.0025,-0.01,-0.01,-0.17,0.02,0,0,0,0.02,0,0,0,0.02,-0.1673914844,0.6703320313,-10.3181336719,0.04,0,0,0,0.04,0,0,0,0.04,1
1.55619146748274E+018,700,1.55619146748242E+018,base_imu_link,0.50841189,0.8609448519,0.0169565099,-0.0019464933,0.0025,0,0,0,0.0025,0,0,0,0.0025,0.01,0,-0.17,0.02,0,0,0,0.02,0,0,0,0.02,0.229828125,-0.0049796094,-9.9446629688,0.04,0,0,0,0.04,0,0,0,0.04,1
1.55619146750888E+018,701,1.55619146750846E+018,base_imu_link,0.5090103153,0.860609841,0.0158757416,-0.0026760631,0.0025,0,0,0,0.0025,0,0,0,0.0025,0,0,-0.16,0.02,0,0,0,0.02,0,0,0,0.02,0.536265625,1.0966632031,-10.614995,0.04,0,0,0,0.04,0,0,0,0.04,1
1.55619146752237E+018,702,1.55619146752194E+018,base_imu_link,0.5094773204,0.8602612807,0.0194716352,-0.0020601688,0.0025,0,0,0,0.0025,0,0,0,0.0025,0.02,0,-0.15,0.02,0,0,0,0.02,0,0,0,0.02,0.4692324219,-0.689484375,-9.7726749219,0.04,0,0,0,0.04,0,0,0,0.04,1
1.55619146754217E+018,703,1.55619146754191E+018,base_imu_link,0.5099890699,0.8600178092,0.0157122874,-0.0058000457,0.0025,0,0,0,0.0025,0,0,0,0.0025,0,0.01,-0.16,0.02,0,0,0,0.02,0,0,0,0.02,1.0150742188,1.2786104688,-9.9017617188,0.04,0,0,0,0.04,0,0,0,0.04,1
1.55619146756216E+018,704,1.55619146756194E+018,base_imu_link,0.5104105258,0.8596209209,0.0221746954,-0.0064226501,0.0025,0,0,0,0.0025,0,0,0,0.0025,0.02,0.01,-0.15,0.02,0,0,0,0.02,0,0,0,0.02,0.3638945313,-0.7228094531,-9.8680535938,0.04,0,0,0,0.04,0,0,0,0.04,1
1.5561914675821E+018,705,1.55619146758181E+018,base_imu_link,0.5109701108,0.8593617399,0.017858047,-0.0093827517,0.0025,0,0,0,0.0025,0,0,0,0.0025,0,0.02,-0.16,0.02,0,0,0,0.02,0,0,0,0.02,0.9384648438,0.87641125,-10.6103984375,0.04,0,0,0,0.04,0,0,0,0.04,1
1.55619146760214E+018,706,1.55619146760178E+018,base_imu_link,0.5118242043,0.8587581151,0.0216042281,-0.010185334,0.0025,0,0,0,0.0025,0,0,0,0.0025,0.01,0.01,-0.15,0.02,0,0,0,0.02,0,0,0,0.02,0.1053378906,-0.0720128125,-10.15533875,0.04,0,0,0,0.04,0,0,0,0.04,1
1.55619146762203E+018,707,1.5561914676218E+018,base_imu_link,0.5125556099,0.858373252,0.0195642114,-0.0099673762,0.0025,0,0,0,0.0025,0,0,0,0.0025,0.01,0.02,-0.16,0.02,0,0,0,0.02,0,0,0,0.02,0.6799082031,0.1198936719,-9.9350867969,0.04,0,0,0,0.04,0,0,0,0.04,1
1.55619146764205E+018,708,1.55619146764179E+018,base_imu_link,0.5134482281,0.857807016,0.0200209599,-0.0117133055,0.0025,0,0,0,0.0025,0,0,0,0.0025,0.01,0.01,-0.15,0.02,0,0,0,0.02,0,0,0,0.02,-0.2585566406,0.1915234375,-11.1799891406,0.04,0,0,0,0.04,0,0,0,0.04,1
1.556191467662E+018,709,1.55619146766172E+018,base_imu_link,0.5141938066,0.8574228366,0.0183866674,-0.009630109,0.0025,0,0,0,0.0025,0,0,0,0.0025,0.02,0.01,-0.15,0.02,0,0,0,0.02,0,0,0,0.02,0.383046875,-0.1103175,-9.9017617188,0.04,0,0,0,0.04,0,0,0,0.04,1
1.55619146768369E+018,710,1.55619146768315E+018,base_imu_link,0.5150753529,0.856906493,0.017185502,-0.0106443236,0.0025,0,0,0,0.0025,0,0,0,0.0025,0,0.01,-0.16,0.02,0,0,0,0.02,0,0,0,0.02,0.3688741406,0.8955635938,-10.8065184375,0.04,0,0,0,0.04,0,0,0,0.04,1
1.55619146770169E+018,711,1.55619146770141E+018,base_imu_link,0.5157011412,0.8564953424,0.0195847885,-0.0091922517,0.0025,0,0,0,0.0025,0,0,0,0.0025,0.02,0,-0.15,0.02,0,0,0,0.02,0,0,0,0.02,0.3926230469,-0.2489804688,-10.2273515625,0.04,0,0,0,0.04,0,0,0,0.04,1
1.55619146772202E+018,712,1.55619146772172E+018,base_imu_link,0.5164261492,0.8560854464,0.0176954899,-0.0104216403,0.0025,0,0,0,0.0025,0,0,0,0.0025,0,0,-0.15,0.02,0,0,0,0.02,0,0,0,0.02,0.3976026563,1.2211534375,-10.2752324219,0.04,0,0,0,0.04,0,0,0,0.04,1
1.5561914677419E+018,713,1.55619146774165E+018,base_imu_link,0.5170672605,0.8556297751,0.0217801409,-0.0080474523,0.0025,0,0,0,0.0025,0,0,0,0.0025,0.02,-0.01,-0.14,0.02,0,0,0,0.02,0,0,0,0.02,0.6032988281,-0.6032988281,-10.0645566406,0.04,0,0,0,0.04,0,0,0,0.04,1
1.55619146776232E+018,714,1.55619146776158E+018,base_imu_link,0.5179218716,0.8551506546,0.0186445328,-0.0112549701,0.0025,0,0,0,0.0025,0,0,0,0.0025,0,-0.01,-0.15,0.02,0,0,0,0.02,0,0,0,0.02,0.689484375,0.8859874219,-10.57209375,0.04,0,0,0,0.04,0,0,0,0.04,1
1.5561914677818E+018,715,1.55619146778153E+018,base_imu_link,0.5187000622,0.8546101735,0.0218233698,-0.0107441807,0.0025,0,0,0,0.0025,0,0,0,0.0025,0.01,-0.01,-0.13,0.02,0,0,0,0.02,0,0,0,0.02,0.416755,-0.1915234375,-10.0549804687,0.04,0,0,0,0.04,0,0,0,0.04,1
1.55619146780215E+018,716,1.55619146780146E+018,base_imu_link,0.5194955592,0.8541574645,0.0199702399,-0.0118566176,0.0025,0,0,0,0.0025,0,0,0,0.0025,0,0,-0.14,0.02,0,0,0,0.02,0,0,0,0.02,1.48928625,0.9625967969,-10.4571796875,0.04,0,0,0,0.04,0,0,0,0.04,1
1.55619146782174E+018,717,1.55619146782151E+018,base_imu_link,0.5203517687,0.8534678064,0.0250966338,-0.0140320755,0.0025,0,0,0,0.0025,0,0,0,0.0025,0.01,-0.01,-0.12,0.02,0,0,0,0.02,0,0,0,0.02,0.5554179688,-0.4742120313,-10.8402265625,0.04,0,0,0,0.04,0,0,0,0.04,1
1.55619146784186E+018,718,1.55619146784155E+018,base_imu_link,0.5212741431,0.8529472884,0.0225529074,-0.0156702668,0.0025,0,0,0,0.0025,0,0,0,0.0025,0,0,-0.14,0.02,0,0,0,0.02,0,0,0,0.02,1.0104776563,0.9863457031,-10.1649149219,0.04,0,0,0,0.04,0,0,0,0.04,1
1.55619146786169E+018,719,1.55619146786146E+018,base_imu_link,0.5222909969,0.8521955554,0.0268947748,-0.0158594178,0.0025,0,0,0,0.0025,0,0,0,0.0025,0.01,0,-0.12,0.02,0,0,0,0.02,0,0,0,0.02,0.2681328125,0.2443839063,-10.2081992187,0.04,0,0,0,0.04,0,0,0,0.04,1
1.55619146788159E+018,720,1.55619146788137E+018,base_imu_link,0.5234055862,0.8515557752,0.0260826296,-0.0148003583,0.0025,0,0,0,0.0025,0,0,0,0.0025,0.01,0.01,-0.12,0.02,0,0,0,0.02,0,0,0,0.02,0.8093780469,-0.2106757813,-10.1361864062,0.04,0,0,0,0.04,0,0,0,0.04,1
1.55619146790335E+018,721,1.556191467903E+018,base_imu_link,0.5246252454,0.8507987307,0.0247573851,-0.0172320524,0.0025,0,0,0,0.0025,0,0,0,0.0025,0,0.01,-0.13,0.02,0,0,0,0.02,0,0,0,0.02,0.7948222656,0.5795499219,-10.9072597656,0.04,0,0,0,0.04,0,0,0,0.04,1
1.55619146792172E+018,722,1.55619146792143E+018,base_imu_link,0.5258287319,0.8500098282,0.0262040978,-0.0173430663,0.0025,0,0,0,0.0025,0,0,0,0.0025,0.02,0.01,-0.12,0.02,0,0,0,0.02,0,0,0,0.02,0.2731124219,-0.9863457031,-10.1028613281,0.04,0,0,0,0.04,0,0,0,0.04,1
1.5561914679417E+018,723,1.55619146794144E+018,base_imu_link,0.5270641869,0.849357731,0.0205763771,-0.0192717512,0.0025,0,0,0,0.0025,0,0,0,0.0025,-0.01,0.01,-0.13,0.02,0,0,0,0.02,0,0,0,0.02,1.3552198438,1.5371671094,-10.4522000781,0.04,0,0,0,0.04,0,0,0,0.04,1
1.55619146796156E+018,724,1.55619146796123E+018,base_imu_link,0.5281182471,0.8485117713,0.0274757024,-0.0190781743,0.0025,0,0,0,0.0025,0,0,0,0.0025,0.02,0,-0.12,0.02,0,0,0,0.02,0,0,0,0.02,-0.2348077344,-0.7515379688,-10.5958426562,0.04,0,0,0,0.04,0,0,0,0.04,1
1.55619146798188E+018,725,1.55619146798149E+018,base_imu_link,0.5290218653,0.8481358941,0.02176779,-0.018097914,0.0025,0,0,0,0.0025,0,0,0,0.0025,0,0,-0.13,0.02,0,0,0,0.02,0,0,0,0.02,0.6366239063,1.3885449219,-10.0308485156,0.04,0,0,0,0.04,0,0,0,0.04,1
1.55619146800202E+018,726,1.5561914680016E+018,base_imu_link,0.5300779847,0.8473795292,0.0269465665,-0.0154643496,0.0025,0,0,0,0.0025,0,0,0,0.0025,0.02,0,-0.11,0.02,0,0,0,0.02,0,0,0,0.02,-0.0861855469,-0.076609375,-10.6965839844,0.04,0,0,0,0.04,0,0,0,0.04,1
1.55619146802141E+018,727,1.55619146802115E+018,base_imu_link,0.5310194015,0.8469064852,0.0239585677,-0.0139207607,0.0025,0,0,0,0.0025,0,0,0,0.0025,0.02,0,-0.13,0.02,0,0,0,0.02,0,0,0,0.02,0.5125167188,0.5075371094,-9.9829676563,0.04,0,0,0,0.04,0,0,0,0.04,1
1.55619146804134E+018,728,1.55619146804104E+018,base_imu_link,0.5319962262,0.8462686478,0.0251010296,-0.0133913922,0.0025,0,0,0,0.0025,0,0,0,0.0025,0.01,0,-0.12,0.02,0,0,0,0.02,0,0,0,0.02,0.8522792969,1.3310878906,-9.9879472656,0.04,0,0,0,0.04,0,0,0,0.04,1
1.55619146806141E+018,729,1.55619146806113E+018,base_imu_link,0.5327978328,0.8456158113,0.0301742357,-0.012242732,0.0025,0,0,0,0.0025,0,0,0,0.0025,0.04,-0.01,-0.11,0.02,0,0,0,0.02,0,0,0,0.02,0.076609375,-1.2498819531,-10.1411660156,0.04,0,0,0,0.04,0,0,0,0.04,1
1.55619146808129E+018,730,1.55619146808105E+018,base_imu_link,0.5338749486,0.8451441936,0.0223446063,-0.0144758365,0.0025,0,0,0,0.0025,0,0,0,0.0025,0.01,0,-0.13,0.02,0,0,0,0.02,0,0,0,0.02,0.5029405469,1.4988624219,-11.1416844531,0.04,0,0,0,0.04,0,0,0,0.04,1
1.55619146810201E+018,731,1.55619146810172E+018,base_imu_link,0.5347460367,0.8445236772,0.0261444543,-0.0119541782,0.0025,0,0,0,0.0025,0,0,0,0.0025,0.02,0,-0.11,0.02,0,0,0,0.02,0,0,0,0.02,0.3734707031,-0.689484375,-10.8402265625,0.04,0,0,0,0.04,0,0,0,0.04,1
1.55619146812119E+018,732,1.55619146812094E+018,base_imu_link,0.5356507136,0.8440324119,0.0223425678,-0.0137262655,0.0025,0,0,0,0.0025,0,0,0,0.0025,0,0,-0.12,0.02,0,0,0,0.02,0,0,0,0.02,0.9338682813,0.9338682813,-9.7581191406,0.04,0,0,0,0.04,0,0,0,0.04,1
1.55619146814117E+018,733,1.55619146814093E+018,base_imu_link,0.5364324316,0.8434034265,0.026802163,-0.0138762555,0.0025,0,0,0,0.0025,0,0,0,0.0025,0.01,0,-0.11,0.02,0,0,0,0.02,0,0,0,0.02,-0.0237489063,-0.0191523438,-11.2232734375,0.04,0,0,0,0.04,0,0,0,0.04,1
1.55619146816118E+018,734,1.55619146816097E+018,base_imu_link,0.5372270693,0.8429871396,0.0244945099,-0.012640308,0.0025,0,0,0,0.0025,0,0,0,0.0025,0.01,0,-0.11,0.02,0,0,0,0.02,0,0,0,0.02,0.9051397656,-0.4646358594,-10.1361864062,0.04,0,0,0,0.04,0,0,0,0.04,1
1.55619146818124E+018,735,1.55619146818096E+018,base_imu_link,0.538198149,0.8423569681,0.0226222963,-0.0163009941,0.0025,0,0,0,0.0025,0,0,0,0.0025,0.01,0,-0.11,0.02,0,0,0,0.02,0,0,0,0.02,1.1204121094,0.5171132813,-10.6870078125,0.04,0,0,0,0.04,0,0,0,0.04,1
1.55619146820152E+018,736,1.55619146820099E+018,base_imu_link,0.5390858637,0.8416957849,0.0249102972,-0.0177232736,0.0025,0,0,0,0.0025,0,0,0,0.0025,0.02,0,-0.1,0.02,0,0,0,0.02,0,0,0,0.02,0.9097363281,-0.340145625,-10.8065184375,0.04,0,0,0,0.04,0,0,0,0.04,1
1.55619146822161E+018,737,1.55619146822114E+018,base_imu_link,0.5396912986,0.8412922016,0.023574408,-0.0201241422,0.0025,0,0,0,0.0025,0,0,0,0.0025,0.01,0,-0.12,0.02,0,0,0,0.02,0,0,0,0.02,1.4509815625,1.1395644531,-9.6336289063,0.04,0,0,0,0.04,0,0,0,0.04,1
1.55619146824115E+018,738,1.55619146824071E+018,base_imu_link,0.5404935406,0.8405370214,0.0302233914,-0.0212319312,0.0025,0,0,0,0.0025,0,0,0,0.0025,0.01,0,-0.11,0.02,0,0,0,0.02,0,0,0,0.02,0.4309277344,0.1436425781,-10.495484375,0.04,0,0,0,0.04,0,0,0,0.04,1
1.55619146826103E+018,739,1.55619146826078E+018,base_imu_link,0.5414410048,0.8399905348,0.0289533151,-0.0204754805,0.0025,0,0,0,0.0025,0,0,0,0.0025,0.01,0,-0.11,0.02,0,0,0,0.02,0,0,0,0.02,-0.0095761719,-0.2826885938,-11.2136972656,0.04,0,0,0,0.04,0,0,0,0.04,1
1.55619146828098E+018,740,1.5561914682807E+018,base_imu_link,0.5426657932,0.8393337775,0.0257855304,-0.0191768935,0.0025,0,0,0,0.0025,0,0,0,0.0025,0,0,-0.12,0.02,0,0,0,0.02,0,0,0,0.02,0.8189542188,0.0812059375,-10.4138953906,0.04,0,0,0,0.04,0,0,0,0.04,1
1.55619146830131E+018,741,1.55619146830083E+018,base_imu_link,0.5437437556,0.838613153,0.025699172,-0.0202548841,0.0025,0,0,0,0.0025,0,0,0,0.0025,0.01,-0.01,-0.11,0.02,0,0,0,0.02,0,0,0,0.02,0.9863457031,-0.1053378906,-10.2560800781,0.04,0,0,0,0.04,0,0,0,0.04,1
1.55619146832095E+018,742,1.55619146832071E+018,base_imu_link,0.544648953,0.8379833963,0.0253336997,-0.0223505984,0.0025,0,0,0,0.0025,0,0,0,0.0025,0.01,-0.01,-0.12,0.02,0,0,0,0.02,0,0,0,0.02,0.8810078125,1.0966632031,-9.925510625,0.04,0,0,0,0.04,0,0,0,0.04,1
1.55619146834101E+018,743,1.5561914683407E+018,base_imu_link,0.5453969211,0.8373892063,0.029842632,-0.0207589253,0.0025,0,0,0,0.0025,0,0,0,0.0025,0,-0.01,-0.12,0.02,0,0,0,0.02,0,0,0,0.02,0.4213515625,-0.7086367188,-10.5816699219,0.04,0,0,0,0.04,0,0,0,0.04,1
1.55619146836081E+018,744,1.55619146836057E+018,base_imu_link,0.5465506441,0.83675108,0.0252890415,-0.0221469643,0.0025,0,0,0,0.0025,0,0,0,0.0025,0.03,-0.01,-0.11,0.02,0,0,0,0.02,0,0,0,0.02,0.7902257031,0.7373652344,-10.4667558594,0.04,0,0,0,0.04,0,0,0,0.04,1
1.55619146838097E+018,745,1.55619146838072E+018,base_imu_link,0.5474017295,0.8361441051,0.0276397881,-0.0212232006,0.0025,0,0,0,0.0025,0,0,0,0.0025,0.01,0,-0.12,0.02,0,0,0,0.02,0,0,0,0.02,0.7611141406,0.5649941406,-10.7636171875,0.04,0,0,0,0.04,0,0,0,0.04,1
1.556191468401E+018,746,1.55619146840069E+018,base_imu_link,0.5481547342,0.8356226161,0.0288225587,-0.0207482754,0.0025,0,0,0,0.0025,0,0,0,0.0025,0.02,0,-0.11,0.02,0,0,0,0.02,0,0,0,0.02,1.1970214844,-0.2777089844,-10.2894051562,0.04,0,0,0,0.04,0,0,0,0.04,1
1.55619146842093E+018,747,1.55619146842069E+018,base_imu_link,0.5490250044,0.8349842031,0.0281458106,-0.0240985157,0.0025,0,0,0,0.0025,0,0,0,0.0025,0.01,0,-0.12,0.02,0,0,0,0.02,0,0,0,0.02,0.2731124219,0.689484375,-10.8735516406,0.04,0,0,0,0.04,0,0,0,0.04,1
1.55619146844109E+018,748,1.55619146844065E+018,base_imu_link,0.5498145019,0.8345231223,0.0285939676,-0.0213905787,0.0025,0,0,0,0.0025,0,0,0,0.0025,0.01,0,-0.11,0.02,0,0,0,0.02,0,0,0,0.02,-0.1390460156,-0.5603975781,-10.7923457031,0.04,0,0,0,0.04,0,0,0,0.04,1
1.5561914684606E+018,749,1.55619146846021E+018,base_imu_link,0.5508663876,0.8340048293,0.0238628189,-0.0203158475,0.0025,0,0,0,0.0025,0,0,0,0.0025,0.01,0,-0.11,0.02,0,0,0,0.02,0,0,0,0.02,1.4701339063,0.6032988281,-10.2415242969,0.04,0,0,0,0.04,0,0,0,0.04,1
1.55619146848089E+018,750,1.55619146848063E+018,base_imu_link,0.5515276686,0.8333886304,0.027836263,-0.0224891956,0.0025,0,0,0,0.0025,0,0,0,0.0025,0,0.01,-0.12,0.02,0,0,0,0.02,0,0,0,0.02,0.7852460938,0.2539600781,-10.1936434375,0.04,0,0,0,0.04,0,0,0,0.04,1
1.55619146850087E+018,751,1.55619146850059E+018,base_imu_link,0.5523261766,0.8328357616,0.0282920678,-0.0228023599,0.0025,0,0,0,0.0025,0,0,0,0.0025,0.01,0,-0.11,0.02,0,0,0,0.02,0,0,0,0.02,0.0478808594,-0.2010996094,-10.5433652344,0.04,0,0,0,0.04,0,0,0,0.04,1
1.55619146852061E+018,752,1.55619146852038E+018,base_imu_link,0.5532624948,0.83235665,0.0251771602,-0.0211926797,0.0025,0,0,0,0.0025,0,0,0,0.0025,0,0,-0.12,0.02,0,0,0,0.02,0,0,0,0.02,0.5508214063,0.1198936719,-10.3181336719,0.04,0,0,0,0.04,0,0,0,0.04,1
1.55619146854049E+018,753,1.55619146854028E+018,base_imu_link,0.5541307643,0.8317991075,0.0246674115,-0.0209966577,0.0025,0,0,0,0.0025,0,0,0,0.0025,0.01,-0.01,-0.11,0.02,0,0,0,0.02,0,0,0,0.02,0.8139746094,0.4692324219,-10.9742929687,0.04,0,0,0,0.04,0,0,0,0.04,1
1.55619146856052E+018,754,1.55619146856028E+018,base_imu_link,0.5547308269,0.831369698,0.0258670742,-0.0207130269,0.0025,0,0,0,0.0025,0,0,0,0.0025,0,-0.01,-0.11,0.02,0,0,0,0.02,0,0,0,0.02,0.7036571094,-0.1103175,-10.9118563281,0.04,0,0,0,0.04,0,0,0,0.04,1
1.55619146858057E+018,755,1.55619146858032E+018,base_imu_link,0.5554982943,0.8308694332,0.0247752902,-0.0215363643,0.0025,0,0,0,0.0025,0,0,0,0.0025,0.02,-0.01,-0.11,0.02,0,0,0,0.02,0,0,0,0.02,0.2010996094,0.7277890625,-10.0116961719,0.04,0,0,0,0.04,0,0,0,0.04,1
1.55619146860322E+018,756,1.55619146860278E+018,base_imu_link,0.5560097476,0.83057575,0.0259181506,-0.018037006,0.0025,0,0,0,0.0025,0,0,0,0.0025,0,-0.01,-0.12,0.02,0,0,0,0.02,0,0,0,0.02,0.0670332031,-0.0528604688,-10.998041875,0.04,0,0,0,0.04,0,0,0,0.04,1
1.55619146862048E+018,757,1.55619146862019E+018,base_imu_link,0.5567267652,0.830189633,0.0235852068,-0.0168588337,0.0025,0,0,0,0.0025,0,0,0,0.0025,0.02,0,-0.11,0.02,0,0,0,0.02,0,0,0,0.02,1.0916835938,0.0957617188,-10.078729375,0.04,0,0,0,0.04,0,0,0,0.04,1
1.55619146864022E+018,758,1.55619146863999E+018,base_imu_link,0.5572053945,0.8297808904,0.0247395726,-0.0193332813,0.0025,0,0,0,0.0025,0,0,0,0.0025,0,0,-0.11,0.02,0,0,0,0.02,0,0,0,0.02,0.6749285938,1.1108359375,-10.1840672656,0.04,0,0,0,0.04,0,0,0,0.04,1
1.55619146866012E+018,759,1.55619146865988E+018,base_imu_link,0.557499889,0.8295076729,0.0285587102,-0.0171841326,0.0025,0,0,0,0.0025,0,0,0,0.0025,0,0,-0.11,0.02,0,0,0,0.02,0,0,0,0.02,0.1915234375,-0.5937226563,-10.8210742187,0.04,0,0,0,0.04,0,0,0,0.04,1
1.5561914686805E+018,760,1.55619146868013E+018,base_imu_link,0.5581001246,0.829221787,0.0245838532,-0.017638396,0.0025,0,0,0,0.0025,0,0,0,0.0025,0,0,-0.12,0.02,0,0,0,0.02,0,0,0,0.02,0.9480410156,0.5987022656,-10.7394852344,0.04,0,0,0,0.04,0,0,0,0.04,1
1.55619146870454E+018,761,1.55619146870416E+018,base_imu_link,0.5586966864,0.828746449,0.026726038,-0.0179737263,0.0025,0,0,0,0.0025,0,0,0,0.0025,0,0,-0.1,0.02,0,0,0,0.02,0,0,0,0.02,1.5417636719,-0.2202519531,-9.7772714844,0.04,0,0,0,0.04,0,0,0,0.04,1
1.55619146872029E+018,762,1.55619146872003E+018,base_imu_link,0.5592569231,0.8282082224,0.0275912984,-0.0232713245,0.0025,0,0,0,0.0025,0,0,0,0.0025,0,0,-0.11,0.02,0,0,0,0.02,0,0,0,0.02,0.7086367188,0.1673914844,-10.5433652344,0.04,0,0,0,0.04,0,0,0,0.04,1
1.55619146874011E+018,763,1.5561914687399E+018,base_imu_link,0.5599051927,0.8277711339,0.0275373306,-0.0232985082,0.0025,0,0,0,0.0025,0,0,0,0.0025,0,0,-0.11,0.02,0,0,0,0.02,0,0,0,0.02,0.9097363281,0.2731124219,-9.8538808594,0.04,0,0,0,0.04,0,0,0,0.04,1
1.55619146876031E+018,764,1.55619146876003E+018,base_imu_link,0.5607700304,0.8271270131,0.0286792049,-0.023987087,0.0025,0,0,0,0.0025,0,0,0,0.0025,0,0,-0.1,0.02,0,0,0,0.02,0,0,0,0.02,0.9767695313,0.5508214063,-9.7102382813,0.04,0,0,0,0.04,0,0,0,0.04,1
1.55619146878006E+018,765,1.55619146877984E+018,base_imu_link,0.5613767496,0.8266234998,0.0311148384,-0.0241164148,0.0025,0,0,0,0.0025,0,0,0,0.0025,0,0,-0.11,0.02,0,0,0,0.02,0,0,0,0.02,-0.1390460156,-0.0861855469,-10.7203328906,0.04,0,0,0,0.04,0,0,0,0.04,1
1.55619146880277E+018,766,1.55619146880252E+018,base_imu_link,0.5622500763,0.8262222551,0.0276601881,-0.0215997893,0.0025,0,0,0,0.0025,0,0,0,0.0025,0.01,0,-0.11,0.02,0,0,0,0.02,0,0,0,0.02,0.4263311719,-0.0528604688,-10.3277098438,0.04,0,0,0,0.04,0,0,0,0.04,1
1.55619146882027E+018,767,1.55619146881995E+018,base_imu_link,0.5631011849,0.8257058798,0.0259867508,-0.0212495749,0.0025,0,0,0,0.0025,0,0,0,0.0025,0,0,-0.1,0.02,0,0,0,0.02,0,0,0,0.02,1.4651542969,0.56997375,-9.9879472656,0.04,0,0,0,0.04,0,0,0,0.04,1
1.55619146884008E+018,768,1.55619146883984E+018,base_imu_link,0.5636766204,0.825127639,0.0297251175,-0.0234406548,0.0025,0,0,0,0.0025,0,0,0,0.0025,0.02,-0.01,-0.1,0.02,0,0,0,0.02,0,0,0,0.02,0.2585566406,-0.6366239063,-10.26565625,0.04,0,0,0,0.04,0,0,0,0.04,1
1.55619146885998E+018,769,1.55619146885978E+018,base_imu_link,0.5644741005,0.824727383,0.0251105369,-0.0237317206,0.0025,0,0,0,0.0025,0,0,0,0.0025,0,-0.01,-0.11,0.02,0,0,0,0.02,0,0,0,0.02,0.2681328125,1.4318292188,-10.7394852344,0.04,0,0,0,0.04,0,0,0,0.04,1
1.55619146887986E+018,770,1.55619146887965E+018,base_imu_link,0.5651092547,0.8243022265,0.0284067661,-0.0192464379,0.0025,0,0,0,0.0025,0,0,0,0.0025,0.02,-0.01,-0.09,0.02,0,0,0,0.02,0,0,0,0.02,0.1627949219,-0.4405039063,-10.4043192187,0.04,0,0,0,0.04,0,0,0,0.04,1
1.55619146890118E+018,771,1.55619146890071E+018,base_imu_link,0.5657862371,0.8239684349,0.0244314848,-0.0191064062,0.0025,0,0,0,0.0025,0,0,0,0.0025,0.01,0,-0.1,0.02,0,0,0,0.02,0,0,0,0.02,0.1103175,0.0095761719,-10.9214325,0.04,0,0,0,0.04,0,0,0,0.04,1
1.55619146892009E+018,772,1.55619146891978E+018,base_imu_link,0.5662964816,0.8236970355,0.0227548549,-0.0177117254,0.0025,0,0,0,0.0025,0,0,0,0.0025,0,0,-0.1,0.02,0,0,0,0.02,0,0,0,0.02,-0.1769676563,0.8572589063,-10.1840672656,0.04,0,0,0,0.04,0,0,0,0.04,1
1.55619146893995E+018,773,1.55619146893967E+018,base_imu_link,0.5667265786,0.8234697418,0.0234448093,-0.0129965525,0.0025,0,0,0,0.0025,0,0,0,0.0025,0.01,0,-0.09,0.02,0,0,0,0.02,0,0,0,0.02,1.2977628125,-0.1053378906,-10.3947430469,0.04,0,0,0,0.04,0,0,0,0.04,1
1.55619146895999E+018,774,1.55619146895969E+018,base_imu_link,0.5671142275,0.823109171,0.0242355519,-0.0168933013,0.0025,0,0,0,0.0025,0,0,0,0.0025,0,0,-0.09,0.02,0,0,0,0.02,0,0,0,0.02,0.6845047656,0.7852460938,-10.4713524219,0.04,0,0,0,0.04,0,0,0,0.04,1
1.55619146897985E+018,775,1.55619146897965E+018,base_imu_link,0.5673665017,0.8228831392,0.0265475359,-0.0159317364,0.0025,0,0,0,0.0025,0,0,0,0.0025,0.01,0,-0.09,0.02,0,0,0,0.02,0,0,0,0.02,0.3255898438,-0.2010996094,-10.3039609375,0.04,0,0,0,0.04,0,0,0,0.04,1
1.55619146900118E+018,776,1.55619146900016E+018,base_imu_link,0.5678422577,0.8226229177,0.0241908512,-0.0161712233,0.0025,0,0,0,0.0025,0,0,0,0.0025,0,0,-0.09,0.02,0,0,0,0.02,0,0,0,0.02,1.2353261719,0.4692324219,-10.4284511719,0.04,0,0,0,0.04,0,0,0,0.04,1
1.55619146901979E+018,777,1.55619146901946E+018,base_imu_link,0.5681961805,0.822259362,0.0267211261,-0.018127976,0.0025,0,0,0,0.0025,0,0,0,0.0025,0.01,0,-0.09,0.02,0,0,0,0.02,0,0,0,0.02,-0.2777089844,-0.2252315625,-10.5146367187,0.04,0,0,0,0.04,0,0,0,0.04,1
1.55619146903982E+018,778,1.5561914690396E+018,base_imu_link,0.5686212916,0.8221286119,0.0228000451,-0.0159539998,0.0025,0,0,0,0.0025,0,0,0,0.0025,0,0,-0.09,0.02,0,0,0,0.02,0,0,0,0.02,0.3018409375,0.3209932813,-10.189046875,0.04,0,0,0,0.04,0,0,0,0.04,1
1.55619146905976E+018,779,1.5561914690595E+018,base_imu_link,0.5692123956,0.8217435129,0.0227892313,-0.0146798719,0.0025,0,0,0,0.0025,0,0,0,0.0025,0,0,-0.09,0.02,0,0,0,0.02,0,0,0,0.02,1.2115772656,0.9671933594,-10.1170340625,0.04,0,0,0,0.04,0,0,0,0.04,1
1.55619146907988E+018,780,1.55619146907945E+018,base_imu_link,0.5693919066,0.8214554827,0.0276672201,-0.0154360505,0.0025,0,0,0,0.0025,0,0,0,0.0025,0.01,0,-0.09,0.02,0,0,0,0.02,0,0,0,0.02,0.2443839063,0.0383046875,-10.998041875,0.04,0,0,0,0.04,0,0,0,0.04,1
1.55619146910218E+018,781,1.55619146910187E+018,base_imu_link,0.5695277476,0.8214270366,0.0260374284,-0.0147587416,0.0025,0,0,0,0.0025,0,0,0,0.0025,0,0,-0.09,0.02,0,0,0,0.02,0,0,0,0.02,0.7756699219,0.8618554688,-10.3277098438,0.04,0,0,0,0.04,0,0,0,0.04,1
1.55619146911991E+018,782,1.55619146911958E+018,base_imu_link,0.5699210303,0.8210719759,0.0288613476,-0.014065994,0.0025,0,0,0,0.0025,0,0,0,0.0025,0.01,0,-0.08,0.02,0,0,0,0.02,0,0,0,0.02,0.6990605469,0.0478808594,-10.2081992187,0.04,0,0,0,0.04,0,0,0,0.04,1
1.55619146914044E+018,783,1.55619146913993E+018,base_imu_link,0.570257713,0.8208410864,0.0281409451,-0.0153015942,0.0025,0,0,0,0.0025,0,0,0,0.0025,0.01,0,-0.09,0.02,0,0,0,0.02,0,0,0,0.02,0.3209932813,0.6320273438,-10.5671141406,0.04,0,0,0,0.04,0,0,0,0.04,1
1.5561914691595E+018,784,1.55619146915922E+018,base_imu_link,0.5707130735,0.8205388902,0.0286698579,-0.0134371354,0.0025,0,0,0,0.0025,0,0,0,0.0025,0.01,0,-0.08,0.02,0,0,0,0.02,0,0,0,0.02,0.8955635938,0.5937226563,-9.95921875,0.04,0,0,0,0.04,0,0,0,0.04,1
1.55619146918049E+018,785,1.55619146918018E+018,base_imu_link,0.5712287353,0.8200886034,0.0308685971,-0.0141260121,0.0025,0,0,0,0.0025,0,0,0,0.0025,0,0,-0.08,0.02,0,0,0,0.02,0,0,0,0.02,-0.0095761719,1.1395644531,-10.2177753906,0.04,0,0,0,0.04,0,0,0,0.04,1
1.55619146920457E+018,786,1.55619146920052E+018,base_imu_link,0.5715582649,0.819873416,0.0321635877,-0.0097074813,0.0025,0,0,0,0.0025,0,0,0,0.0025,0.02,0,-0.08,0.02,0,0,0,0.02,0,0,0,0.02,-0.0907821094,-0.2681328125,-10.1074578906,0.04,0,0,0,0.04,0,0,0,0.04,1
1.55619146921962E+018,787,1.55619146921932E+018,base_imu_link,0.5721654952,0.8196191319,0.0276866607,-0.0091963847,0.0025,0,0,0,0.0025,0,0,0,0.0025,0.01,0,-0.08,0.02,0,0,0,0.02,0,0,0,0.02,0.2826885938,0.0287285156,-10.801921875,0.04,0,0,0,0.04,0,0,0,0.04,1
1.5561914692394E+018,788,1.55619146923916E+018,base_imu_link,0.5727257766,0.8192772322,0.0261929237,-0.0091614615,0.0025,0,0,0,0.0025,0,0,0,0.0025,-0.01,0,-0.07,0.02,0,0,0,0.02,0,0,0,0.02,0.0720128125,1.48928625,-9.7056417188,0.04,0,0,0,0.04,0,0,0,0.04,1
1.55619146925941E+018,789,1.55619146925919E+018,base_imu_link,0.5729025558,0.8190604333,0.0300996817,-0.0040837983,0.0025,0,0,0,0.0025,0,0,0,0.0025,0.01,0,-0.06,0.02,0,0,0,0.02,0,0,0,0.02,0.3018409375,0.3255898438,-10.7540410156,0.04,0,0,0,0.04,0,0,0,0.04,1
1.55619146927949E+018,790,1.55619146927914E+018,base_imu_link,0.5731822591,0.8188964318,0.0292296849,-0.004044418,0.0025,0,0,0,0.0025,0,0,0,0.0025,0,0,-0.07,0.02,0,0,0,0.02,0,0,0,0.02,0.3926230469,0.0624366406,-10.3564383594,0.04,0,0,0,0.04,0,0,0,0.04,1
1.5561914692995E+018,791,1.55619146929916E+018,base_imu_link,0.5736749226,0.8185934855,0.0278963401,-0.0048562188,0.0025,0,0,0,0.0025,0,0,0,0.0025,-0.01,0,-0.06,0.02,0,0,0,0.02,0,0,0,0.02,-0.1627949219,0.6799082031,-10.5050605469,0.04,0,0,0,0.04,0,0,0,0.04,1
1.55619146931941E+018,792,1.55619146931912E+018,base_imu_link,0.5738063295,0.8185283513,0.0274466269,-0.0020777535,0.0025,0,0,0,0.0025,0,0,0,0.0025,0,0,-0.05,0.02,0,0,0,0.02,0,0,0,0.02,0.2156553906,0.2585566406,-10.26565625,0.04,0,0,0,0.04,0,0,0,0.04,1
1.5561914693392E+018,793,1.55619146933896E+018,base_imu_link,0.5743000188,0.8182170565,0.0263834149,-0.0020621016,0.0025,0,0,0,0.0025,0,0,0,0.0025,0.01,0,-0.05,0.02,0,0,0,0.02,0,0,0,0.02,0.1007413281,0.1673914844,-10.9742929687,0.04,0,0,0,0.04,0,0,0,0.04,1
1.55619146935928E+018,794,1.55619146935896E+018,base_imu_link,0.5745761849,0.8180715283,0.0248549471,-0.0018476893,0.0025,0,0,0,0.0025,0,0,0,0.0025,0,0,-0.05,0.02,0,0,0,0.02,0,0,0,0.02,-0.383046875,0.3305694531,-10.4571796875,0.04,0,0,0,0.04,0,0,0,0.04,1
1.55619146937925E+018,795,1.55619146937895E+018,base_imu_link,0.5747658837,0.8180003152,0.0227868451,0.0006504318,0.0025,0,0,0,0.0025,0,0,0,0.0025,0,0,-0.05,0.02,0,0,0,0.02,0,0,0,0.02,0.8810078125,1.2115772656,-10.2702528125,0.04,0,0,0,0.04,0,0,0,0.04,1
1.5561914694003E+018,796,1.55619146939992E+018,base_imu_link,0.5750039787,0.8176878534,0.0275098001,0.0004580444,0.0025,0,0,0,0.0025,0,0,0,0.0025,0.01,-0.01,-0.04,0.02,0,0,0,0.02,0,0,0,0.02,-0.2348077344,0.1436425781,-10.1170340625,0.04,0,0,0,0.04,0,0,0,0.04,1
1.55619146941935E+018,797,1.55619146941906E+018,base_imu_link,0.5752640841,0.817589147,0.0248132439,0.0018770348,0.0025,0,0,0,0.0025,0,0,0,0.0025,-0.01,-0.01,-0.04,0.02,0,0,0,0.02,0,0,0,0.02,0.1915234375,0.8905839844,-10.8402265625,0.04,0,0,0,0.04,0,0,0,0.04,1
1.55619146943916E+018,798,1.55619146943893E+018,base_imu_link,0.5756109163,0.8172992377,0.0261306016,0.0033497281,0.0025,0,0,0,0.0025,0,0,0,0.0025,-0.01,-0.01,-0.03,0.02,0,0,0,0.02,0,0,0,0.02,-0.5554179688,1.4605577344,-9.7102382813,0.04,0,0,0,0.04,0,0,0,0.04,1
1.5561914694591E+018,799,1.55619146945886E+018,base_imu_link,0.5756566195,0.8171524873,0.0280492247,0.0097216156,0.0025,0,0,0,0.0025,0,0,0,0.0025,0,0,-0.03,0.02,0,0,0,0.02,0,0,0,0.02,-0.1244902344,-0.3114171094,-10.2989813281,0.04,0,0,0,0.04,0,0,0,0.04,1
1.55619146947917E+018,800,1.55619146947887E+018,base_imu_link,0.5760255993,0.817035514,0.0239616324,0.0085625896,0.0025,0,0,0,0.0025,0,0,0,0.0025,-0.01,0,-0.04,0.02,0,0,0,0.02,0,0,0,0.02,0.9480410156,1.2115772656,-10.5050605469,0.04,0,0,0,0.04,0,0,0,0.04,1
1.55619146949938E+018,801,1.55619146949881E+018,base_imu_link,0.5762714219,0.8167253545,0.0285356978,0.0075271234,0.0025,0,0,0,0.0025,0,0,0,0.0025,-0.01,-0.01,-0.02,0.02,0,0,0,0.02,0,0,0,0.02,0.1627949219,1.2353261719,-10.0691532031,0.04,0,0,0,0.04,0,0,0,0.04,1
1.55619146951897E+018,802,1.55619146951874E+018,base_imu_link,0.5763111634,0.8165805175,0.0311425807,0.0095833768,0.0025,0,0,0,0.0025,0,0,0,0.0025,0,0,-0.02,0.02,0,0,0,0.02,0,0,0,0.02,0.7710733594,0.2010996094,-9.6481846875,0.04,0,0,0,0.04,0,0,0,0.04,1
1.55619146953911E+018,803,1.5561914695388E+018,base_imu_link,0.5765914463,0.8164124561,0.0312313955,0.0061323392,0.0025,0,0,0,0.0025,0,0,0,0.0025,0,-0.01,-0.03,0.02,0,0,0,0.02,0,0,0,0.02,0.7182128906,0.6845047656,-11.261578125,0.04,0,0,0,0.04,0,0,0,0.04,1
1.55619146955893E+018,804,1.55619146955869E+018,base_imu_link,0.5769003252,0.816161508,0.0322768475,0.0049611356,0.0025,0,0,0,0.0025,0,0,0,0.0025,0,0,-0.03,0.02,0,0,0,0.02,0,0,0,0.02,0.1103175,0.8381065625,-10.6341473437,0.04,0,0,0,0.04,0,0,0,0.04,1
1.55619146957896E+018,805,1.55619146957866E+018,base_imu_link,0.5772369524,0.8159036275,0.0325547495,0.0062417718,0.0025,0,0,0,0.0025,0,0,0,0.0025,0,0,-0.02,0.02,0,0,0,0.02,0,0,0,0.02,-0.1149140625,0.9863457031,-9.4949659375,0.04,0,0,0,0.04,0,0,0,0.04,1
1.55619146960344E+018,806,1.55619146960272E+018,base_imu_link,0.5775436294,0.8156432426,0.0330103438,0.0089316394,0.0025,0,0,0,0.0025,0,0,0,0.0025,0.02,-0.01,-0.02,0.02,0,0,0,0.02,0,0,0,0.02,-0.0670332031,0.0478808594,-11.07465125,0.04,0,0,0,0.04,0,0,0,0.04,1
1.55619146961905E+018,807,1.55619146961863E+018,base_imu_link,0.5779001203,0.8155093637,0.0300950836,0.0083794198,0.0025,0,0,0,0.0025,0,0,0,0.0025,0.02,0,-0.03,0.02,0,0,0,0.02,0,0,0,0.02,0.45965625,0.9051397656,-10.2511004687,0.04,0,0,0,0.04,0,0,0,0.04,1
1.55619146963999E+018,808,1.5561914696397E+018,base_imu_link,0.5782639466,0.8151889797,0.0317635323,0.0082953873,0.0025,0,0,0,0.0025,0,0,0,0.0025,0.02,-0.01,-0.03,0.02,0,0,0,0.02,0,0,0,0.02,0.1673914844,1.3839483594,-9.5907276563,0.04,0,0,0,0.04,0,0,0,0.04,1
1.5561914696587E+018,809,1.55619146965844E+018,base_imu_link,0.5782933151,0.8150182248,0.0347412454,0.0107322302,0.0025,0,0,0,0.0025,0,0,0,0.0025,0.02,-0.01,-0.03,0.02,0,0,0,0.02,0,0,0,0.02,0.9767695313,0.3305694531,-10.6582792969,0.04,0,0,0,0.04,0,0,0,0.04,1
1.55619146967864E+018,810,1.55619146967844E+018,base_imu_link,0.5785124097,0.8148866601,0.0350817935,0.0072381559,0.0025,0,0,0,0.0025,0,0,0,0.0025,0.01,-0.01,-0.03,0.02,0,0,0,0.02,0,0,0,0.02,0.3734707031,1.2211534375,-10.0741328125,0.04,0,0,0,0.04,0,0,0,0.04,1
1.55619146969902E+018,811,1.5561914696985E+018,base_imu_link,0.5787111688,0.814625978,0.0374855495,0.0085283462,0.0025,0,0,0,0.0025,0,0,0,0.0025,0.01,-0.01,-0.03,0.02,0,0,0,0.02,0,0,0,0.02,-0.7132332813,0.1578153125,-10.5625175781,0.04,0,0,0,0.04,0,0,0,0.04,1
1.55619146971878E+018,812,1.55619146971851E+018,base_imu_link,0.5790700108,0.8145455116,0.0328457271,0.0107093597,0.0025,0,0,0,0.0025,0,0,0,0.0025,0,-0.01,-0.03,0.02,0,0,0,0.02,0,0,0,0.02,0.4359073438,0.612875,-9.9783710938,0.04,0,0,0,0.04,0,0,0,0.04,1
1.55619146973881E+018,813,1.55619146973844E+018,base_imu_link,0.5795223223,0.814219219,0.0332837229,0.0096506562,0.0025,0,0,0,0.0025,0,0,0,0.0025,0.01,-0.01,-0.03,0.02,0,0,0,0.02,0,0,0,0.02,0.3543183594,-0.0720128125,-10.3614179687,0.04,0,0,0,0.04,0,0,0,0.04,1
1.55619146975878E+018,814,1.55619146975846E+018,base_imu_link,0.5798428625,0.8141111851,0.0308335509,0.0073841142,0.0025,0,0,0,0.0025,0,0,0,0.0025,-0.01,-0.01,-0.04,0.02,0,0,0,0.02,0,0,0,0.02,0.2826885938,1.3264913281,-10.7011805469,0.04,0,0,0,0.04,0,0,0,0.04,1
1.55619146977869E+018,815,1.55619146977839E+018,base_imu_link,0.57996295,0.8139153251,0.0332268676,0.0089886328,0.0025,0,0,0,0.0025,0,0,0,0.0025,0,-0.01,-0.03,0.02,0,0,0,0.02,0,0,0,0.02,-0.1578153125,0.7228094531,-10.3997226562,0.04,0,0,0,0.04,0,0,0,0.04,1
1.55619146979894E+018,816,1.55619146979856E+018,base_imu_link,0.5802078699,0.8137631707,0.0321818943,0.0106139222,0.0025,0,0,0,0.0025,0,0,0,0.0025,0.02,-0.01,-0.02,0.02,0,0,0,0.02,0,0,0,0.02,0.1149140625,-0.3209932813,-10.7827695312,0.04,0,0,0,0.04,0,0,0,0.04,1
1.55619146981852E+018,817,1.5561914698183E+018,base_imu_link,0.580523779,0.8136988657,0.0285169741,0.0085486913,0.0025,0,0,0,0.0025,0,0,0,0.0025,0.01,-0.01,-0.03,0.02,0,0,0,0.02,0,0,0,0.02,0.536265625,1.0679346875,-10.0404246875,0.04,0,0,0,0.04,0,0,0,0.04,1
1.55619146983928E+018,818,1.55619146983835E+018,base_imu_link,0.5807453446,0.8134390138,0.0312719404,0.008595427,0.0025,0,0,0,0.0025,0,0,0,0.0025,0.02,-0.01,-0.02,0.02,0,0,0,0.02,0,0,0,0.02,0.0287285156,0.5649941406,-9.882609375,0.04,0,0,0,0.04,0,0,0,0.04,1
1.55619146985887E+018,819,1.55619146985834E+018,base_imu_link,0.580799299,0.8134239232,0.0304505707,0.0092982906,0.0025,0,0,0,0.0025,0,0,0,0.0025,0.01,-0.01,-0.03,0.02,0,0,0,0.02,0,0,0,0.02,-0.1819472656,1.106239375,-10.3277098438,0.04,0,0,0,0.04,0,0,0,0.04,1
1.5561914698785E+018,820,1.55619146987818E+018,base_imu_link,0.5809512438,0.8132566097,0.0310369191,0.0120850628,0.0025,0,0,0,0.0025,0,0,0,0.0025,0.02,-0.01,-0.03,0.02,0,0,0,0.02,0,0,0,0.02,-0.2010996094,0.0528604688,-10.6341473437,0.04,0,0,0,0.04,0,0,0,0.04,1
1.55619146989917E+018,821,1.55619146989874E+018,base_imu_link,0.5810912545,0.8132814374,0.0276793515,0.01183685,0.0025,0,0,0,0.0025,0,0,0,0.0025,0.01,-0.01,-0.03,0.02,0,0,0,0.02,0,0,0,0.02,-0.6940809375,0.842703125,-10.6582792969,0.04,0,0,0,0.04,0,0,0,0.04,1
1.55619146991845E+018,822,1.55619146991817E+018,base_imu_link,0.5810725593,0.8132868402,0.0261879611,0.0152770126,0.0025,0,0,0,0.0025,0,0,0,0.0025,0.02,-0.02,-0.02,0.02,0,0,0,0.02,0,0,0,0.02,0.1673914844,-0.3018409375,-10.3039609375,0.04,0,0,0,0.04,0,0,0,0.04,1
1.55619146993859E+018,823,1.55619146993831E+018,base_imu_link,0.5812130721,0.8133350279,0.0228915228,0.012388518,0.0025,0,0,0,0.0025,0,0,0,0.0025,0.01,-0.02,-0.02,0.02,0,0,0,0.02,0,0,0,0.02,0.4500800781,-0.1198936719,-10.5288094531,0.04,0,0,0,0.04,0,0,0,0.04,1
1.55619146995841E+018,824,1.55619146995811E+018,base_imu_link,0.5812697842,0.8133711229,0.021482269,0.0095585821,0.0025,0,0,0,0.0025,0,0,0,0.0025,-0.01,-0.02,-0.03,0.02,0,0,0,0.02,0,0,0,0.02,-0.0095761719,1.6758300781,-10.3372860156,0.04,0,0,0,0.04,0,0,0,0.04,1
1.5561914699781E+018,825,1.5561914699779E+018,base_imu_link,0.5810561866,0.8133589293,0.0254591067,0.0131451114,0.0025,0,0,0,0.0025,0,0,0,0.0025,0.01,-0.02,-0.02,0.02,0,0,0,0.02,0,0,0,0.02,-0.033708125,0.5220928906,-9.6623574219,0.04,0,0,0,0.04,0,0,0,0.04,1
1.55619147000137E+018,826,1.55619147000083E+018,base_imu_link,0.5809736432,0.8134237738,0.0250344765,0.0135891539,0.0025,0,0,0,0.0025,0,0,0,0.0025,0.01,-0.01,-0.03,0.02,0,0,0,0.02,0,0,0,0.02,-0.0574570313,0.3638945313,-10.0932851562,0.04,0,0,0,0.04,0,0,0,0.04,1
1.55619147001833E+018,827,1.55619147001803E+018,base_imu_link,0.5808295831,0.8135653349,0.0237288318,0.0136155756,0.0025,0,0,0,0.0025,0,0,0,0.0025,0.01,-0.01,-0.03,0.02,0,0,0,0.02,0,0,0,0.02,-0.6703320313,0.7902257031,-10.495484375,0.04,0,0,0,0.04,0,0,0,0.04,1
1.55619147003824E+018,828,1.55619147003796E+018,base_imu_link,0.5806746866,0.813650566,0.0225651514,0.0167474976,0.0025,0,0,0,0.0025,0,0,0,0.0025,0.01,-0.01,-0.03,0.02,0,0,0,0.02,0,0,0,0.02,-0.5029405469,0.4646358594,-9.9400664063,0.04,0,0,0,0.04,0,0,0,0.04,1
1.55619147005815E+018,829,1.55619147005791E+018,base_imu_link,0.5804109037,0.8138511006,0.020674285,0.018497103,0.0025,0,0,0,0.0025,0,0,0,0.0025,0.01,-0.01,-0.03,0.02,0,0,0,0.02,0,0,0,0.02,0.5987022656,0.2010996094,-10.3709941406,0.04,0,0,0,0.04,0,0,0,0.04,1
1.55619147007871E+018,830,1.55619147007803E+018,base_imu_link,0.5802948398,0.8139940414,0.0211019363,0.0150435312,0.0025,0,0,0,0.0025,0,0,0,0.0025,0,0,-0.03,0.02,0,0,0,0.02,0,0,0,0.02,-0.3018409375,0.4742120313,-10.6532996875,0.04,0,0,0,0.04,0,0,0,0.04,1
1.55619147009863E+018,831,1.55619147009804E+018,base_imu_link,0.5800577883,0.8141702203,0.0201333823,0.0159518493,0.0025,0,0,0,0.0025,0,0,0,0.0025,0,0,-0.03,0.02,0,0,0,0.02,0,0,0,0.02,-0.3592979688,1.2353261719,-10.46177625,0.04,0,0,0,0.04,0,0,0,0.04,1
1.55619147011819E+018,832,1.55619147011793E+018,base_imu_link,0.5797551005,0.8142770699,0.0218354684,0.0189760182,0.0025,0,0,0,0.0025,0,0,0,0.0025,0,0,-0.03,0.02,0,0,0,0.02,0,0,0,0.02,0.5075371094,0.4692324219,-10.1507421875,0.04,0,0,0,0.04,0,0,0,0.04,1
1.55619147013801E+018,833,1.55619147013776E+018,base_imu_link,0.5796177584,0.8144009738,0.022911035,0.0164131793,0.0025,0,0,0,0.0025,0,0,0,0.0025,0.01,0,-0.03,0.02,0,0,0,0.02,0,0,0,0.02,-0.2681328125,0.04290125,-10.8114980469,0.04,0,0,0,0.04,0,0,0,0.04,1
1.55619147015791E+018,834,1.55619147015768E+018,base_imu_link,0.57927369,0.8147201372,0.0204125357,0.0160130744,0.0025,0,0,0,0.0025,0,0,0,0.0025,0,0,-0.03,0.02,0,0,0,0.02,0,0,0,0.02,-0.5075371094,0.6320273438,-10.4713524219,0.04,0,0,0,0.04,0,0,0,0.04,1
1.5561914701779E+018,835,1.55619147017769E+018,base_imu_link,0.5790762366,0.8148431369,0.0194361362,0.0179891929,0.0025,0,0,0,0.0025,0,0,0,0.0025,0.01,-0.01,-0.03,0.02,0,0,0,0.02,0,0,0,0.02,-0.8810078125,0.6749285938,-10.0454042969,0.04,0,0,0,0.04,0,0,0,0.04,1
1.55619147019977E+018,836,1.55619147019935E+018,base_imu_link,0.5787512761,0.8150274613,0.0176142803,0.0216086761,0.0025,0,0,0,0.0025,0,0,0,0.0025,0.01,-0.01,-0.03,0.02,0,0,0,0.02,0,0,0,0.02,0.0237489063,0.1769676563,-10.4571796875,0.04,0,0,0,0.04,0,0,0,0.04,1
1.55619147021793E+018,837,1.55619147021767E+018,base_imu_link,0.5785228516,0.8152520211,0.0166535416,0.0199527393,0.0025,0,0,0,0.0025,0,0,0,0.0025,0.01,-0.01,-0.03,0.02,0,0,0,0.02,0,0,0,0.02,0.2060792188,0.6462000781,-9.6336289063,0.04,0,0,0,0.04,0,0,0,0.04,1
1.55619147023786E+018,838,1.55619147023762E+018,base_imu_link,0.5781880768,0.8154733813,0.0182824765,0.01916933,0.0025,0,0,0,0.0025,0,0,0,0.0025,0,-0.01,-0.03,0.02,0,0,0,0.02,0,0,0,0.02,-0.0812059375,0.9384648438,-10.0837089844,0.04,0,0,0,0.04,0,0,0,0.04,1
1.55619147025793E+018,839,1.55619147025771E+018,base_imu_link,0.5777254091,0.8157383343,0.0199090898,0.0201977677,0.0025,0,0,0,0.0025,0,0,0,0.0025,0.01,0,-0.03,0.02,0,0,0,0.02,0,0,0,0.02,-0.2394042969,-0.0907821094,-10.15533875,0.04,0,0,0,0.04,0,0,0,0.04,1
1.55619147027762E+018,840,1.55619147027742E+018,base_imu_link,0.5774869911,0.8160046054,0.0169997924,0.0188750116,0.0025,0,0,0,0.0025,0,0,0,0.0025,0,0,-0.04,0.02,0,0,0,0.02,0,0,0,0.02,-0.1436425781,1.0629550781,-10.6391269531,0.04,0,0,0,0.04,0,0,0,0.04,1
1.55619147029828E+018,841,1.55619147029776E+018,base_imu_link,0.5772285945,0.8161176805,0.0187348726,0.020201134,0.0025,0,0,0,0.0025,0,0,0,0.0025,0.01,0,-0.03,0.02,0,0,0,0.02,0,0,0,0.02,-0.2394042969,0.6032988281,-10.3135371094,0.04,0,0,0,0.04,0,0,0,0.04,1
1.55619147031786E+018,842,1.55619147031758E+018,base_imu_link,0.5769285586,0.8163231227,0.0185109404,0.0206722681,0.0025,0,0,0,0.0025,0,0,0,0.0025,0.02,0,-0.03,0.02,0,0,0,0.02,0,0,0,0.02,-0.1865438281,0.383046875,-10.2369277344,0.04,0,0,0,0.04,0,0,0,0.04,1
1.55619147033779E+018,843,1.5561914703375E+018,base_imu_link,0.5766548352,0.8165429101,0.0176545567,0.0203763011,0.0025,0,0,0,0.0025,0,0,0,0.0025,0.01,0,-0.03,0.02,0,0,0,0.02,0,0,0,0.02,-0.7277890625,0.9434444531,-10.3039609375,0.04,0,0,0,0.04,0,0,0,0.04,1
1.55619147035782E+018,844,1.55619147035748E+018,base_imu_link,0.5761857258,0.8167894223,0.0174788711,0.0236545588,0.0025,0,0,0,0.0025,0,0,0,0.0025,0.01,0,-0.03,0.02,0,0,0,0.02,0,0,0,0.02,-0.2202519531,0.7806495313,-9.95921875,0.04,0,0,0,0.04,0,0,0,0.04,1
1.5561914703777E+018,845,1.55619147037748E+018,base_imu_link,0.5759395877,0.8169214694,0.0183112429,0.024445911,0.0025,0,0,0,0.0025,0,0,0,0.0025,0.01,0,-0.02,0.02,0,0,0,0.02,0,0,0,0.02,-0.1486221875,0.1340664063,-9.9542391406,0.04,0,0,0,0.04,0,0,0,0.04,1
1.55619147039887E+018,846,1.5561914703983E+018,base_imu_link,0.5755011746,0.8173126978,0.0165009837,0.0229362066,0.0025,0,0,0,0.0025,0,0,0,0.0025,0.01,0,-0.03,0.02,0,0,0,0.02,0,0,0,0.02,-0.6511796875,0.1103175,-10.648703125,0.04,0,0,0,0.04,0,0,0,0.04,1
1.55619147041786E+018,847,1.55619147041752E+018,base_imu_link,0.5751372781,0.8176052798,0.0138363235,0.0233938846,0.0025,0,0,0,0.0025,0,0,0,0.0025,0,0,-0.03,0.02,0,0,0,0.02,0,0,0,0.02,-0.2010996094,0.9384648438,-10.57209375,0.04,0,0,0,0.04,0,0,0,0.04,1
1.5561914704374E+018,848,1.55619147043717E+018,base_imu_link,0.5748150468,0.8177795004,0.0153722152,0.0242496524,0.0025,0,0,0,0.0025,0,0,0,0.0025,0.01,0,-0.02,0.02,0,0,0,0.02,0,0,0,0.02,0.1915234375,0.3592979688,-10.0454042969,0.04,0,0,0,0.04,0,0,0,0.04,1
1.55619147045738E+018,849,1.55619147045717E+018,base_imu_link,0.5744655707,0.8180810153,0.0158035741,0.02197743,0.0025,0,0,0,0.0025,0,0,0,0.0025,0.02,0,-0.02,0.02,0,0,0,0.02,0,0,0,0.02,-0.0478808594,0.0861855469,-10.385166875,0.04,0,0,0,0.04,0,0,0,0.04,1
1.55619147047746E+018,850,1.55619147047722E+018,base_imu_link,0.5741680681,0.8183589789,0.0144501555,0.0202683082,0.0025,0,0,0,0.0025,0,0,0,0.0025,0.01,0,-0.02,0.02,0,0,0,0.02,0,0,0,0.02,0.1578153125,1.2353261719,-10.0741328125,0.04,0,0,0,0.04,0,0,0,0.04,1
1.55619147049853E+018,851,1.55619147049742E+018,base_imu_link,0.5739191743,0.818437555,0.018285927,0.0210327097,0.0025,0,0,0,0.0025,0,0,0,0.0025,0.01,-0.01,-0.02,0.02,0,0,0,0.02,0,0,0,0.02,0.5171132813,0.2539600781,-9.2459854688,0.04,0,0,0,0.04,0,0,0,0.04,1
1.55619147051755E+018,852,1.55619147051725E+018,base_imu_link,0.5736568991,0.8186793956,0.0189474305,0.0179667534,0.0025,0,0,0,0.0025,0,0,0,0.0025,0.01,-0.01,-0.03,0.02,0,0,0,0.02,0,0,0,0.02,-0.1865438281,0.5745703125,-10.2127957812,0.04,0,0,0,0.04,0,0,0,0.04,1
1.55619147053812E+018,853,1.55619147053763E+018,base_imu_link,0.573282022,0.818933339,0.0187478877,0.018558724,0.0025,0,0,0,0.0025,0,0,0,0.0025,0.01,-0.01,-0.03,0.02,0,0,0,0.02,0,0,0,0.02,-0.1819472656,0.2156553906,-10.8639754687,0.04,0,0,0,0.04,0,0,0,0.04,1
1.55619147055753E+018,854,1.55619147055722E+018,base_imu_link,0.5731564697,0.8190623694,0.0174073864,0.0180410411,0.0025,0,0,0,0.0025,0,0,0,0.0025,0,-0.01,-0.03,0.02,0,0,0,0.02,0,0,0,0.02,-0.0383046875,0.493364375,-9.7535225781,0.04,0,0,0,0.04,0,0,0,0.04,1
1.55619147057748E+018,855,1.55619147057705E+018,base_imu_link,0.5730174978,0.8191606032,0.0175105781,0.0178950552,0.0025,0,0,0,0.0025,0,0,0,0.0025,0.01,-0.01,-0.03,0.02,0,0,0,0.02,0,0,0,0.02,0.45965625,-0.0191523438,-10.6295507812,0.04,0,0,0,0.04,0,0,0,0.04,1
1.55619147059858E+018,856,1.55619147059807E+018,base_imu_link,0.5728941728,0.8193267204,0.016913346,0.0144889843,0.0025,0,0,0,0.0025,0,0,0,0.0025,0.01,-0.01,-0.03,0.02,0,0,0,0.02,0,0,0,0.02,0.1627949219,0.6224511719,-10.231948125,0.04,0,0,0,0.04,0,0,0,0.04,1
1.55619147061737E+018,857,1.5561914706171E+018,base_imu_link,0.5726870932,0.819451855,0.0181105414,0.0141477531,0.0025,0,0,0,0.0025,0,0,0,0.0025,0.01,-0.01,-0.03,0.02,0,0,0,0.02,0,0,0,0.02,-0.0670332031,0.995921875,-10.5625175781,0.04,0,0,0,0.04,0,0,0,0.04,1
1.55619147063725E+018,858,1.55619147063702E+018,base_imu_link,0.5725094693,0.819514378,0.0197295032,0.0154867191,0.0025,0,0,0,0.0025,0,0,0,0.0025,0.02,0,-0.03,0.02,0,0,0,0.02,0,0,0,0.02,-0.2010996094,0.3114171094,-10.6341473437,0.04,0,0,0,0.04,0,0,0,0.04,1
1.55619147065726E+018,859,1.55619147065703E+018,base_imu_link,0.5724389513,0.8195957939,0.0183514219,0.0154792441,0.0025,0,0,0,0.0025,0,0,0,0.0025,0.02,0,-0.03,0.02,0,0,0,0.02,0,0,0,0.02,-0.3976026563,0.493364375,-11.0413261719,0.04,0,0,0,0.04,0,0,0,0.04,1
1.55619147067723E+018,860,1.55619147067695E+018,base_imu_link,0.5723439558,0.8196652026,0.0173888307,0.0164006258,0.0025,0,0,0,0.0025,0,0,0,0.0025,0.02,0,-0.03,0.02,0,0,0,0.02,0,0,0,0.02,-0.2060792188,0.5937226563,-10.6391269531,0.04,0,0,0,0.04,0,0,0,0.04,1
1.55619147069776E+018,861,1.5561914706972E+018,base_imu_link,0.572256723,0.8197161215,0.0173051492,0.0169780754,0.0025,0,0,0,0.0025,0,0,0,0.0025,0.02,0,-0.03,0.02,0,0,0,0.02,0,0,0,0.02,-0.5891260938,0.0191523438,-10.9214325,0.04,0,0,0,0.04,0,0,0,0.04,1
1.55619147071753E+018,862,1.55619147071691E+018,base_imu_link,0.5721811941,0.8198179132,0.0144192512,0.0173018963,0.0025,0,0,0,0.0025,0,0,0,0.0025,0.01,0.01,-0.03,0.02,0,0,0,0.02,0,0,0,0.02,-0.6990605469,0.0287285156,-11.3332078906,0.04,0,0,0,0.04,0,0,0,0.04,1
1.5561914707372E+018,863,1.55619147073697E+018,base_imu_link,0.5718821436,0.8200505277,0.0120387813,0.0179725788,0.0025,0,0,0,0.0025,0,0,0,0.0025,0,0.01,-0.03,0.02,0,0,0,0.02,0,0,0,0.02,0.0907821094,1.1924249219,-10.5862664844,0.04,0,0,0,0.04,0,0,0,0.04,1
1.55619147075746E+018,864,1.55619147075707E+018,base_imu_link,0.5717081391,0.8200994249,0.0153172267,0.0187648466,0.0025,0,0,0,0.0025,0,0,0,0.0025,0.01,0.01,-0.02,0.02,0,0,0,0.02,0,0,0,0.02,0.2826885938,0.2539600781,-10.3755907031,0.04,0,0,0,0.04,0,0,0,0.04,1
1.55619147077726E+018,865,1.55619147077694E+018,base_imu_link,0.5714875204,0.8202988512,0.0155904663,0.0163934774,0.0025,0,0,0,0.0025,0,0,0,0.0025,0.01,0.01,-0.03,0.02,0,0,0,0.02,0,0,0,0.02,-0.5508214063,0.3880264844,-10.9310086719,0.04,0,0,0,0.04,0,0,0,0.04,1
1.55619147079959E+018,866,1.55619147079919E+018,base_imu_link,0.5713167944,0.8204185989,0.0142877341,0.0175015324,0.0025,0,0,0,0.0025,0,0,0,0.0025,0.01,0.01,-0.02,0.02,0,0,0,0.02,0,0,0,0.02,0.1198936719,0.3880264844,-9.9542391406,0.04,0,0,0,0.04,0,0,0,0.04,1
1.55619147082117E+018,867,1.55619147081988E+018,base_imu_link,0.5712787399,0.8204613343,0.0148723686,0.0162053337,0.0025,0,0,0,0.0025,0,0,0,0.0025,0.01,0.02,-0.02,0.02,0,0,0,0.02,0,0,0,0.02,-0.340145625,0.5220928906,-10.3085575,0.04,0,0,0,0.04,0,0,0,0.04,1
1.55619147083705E+018,868,1.55619147083679E+018,base_imu_link,0.5710444613,0.8206165609,0.0144497225,0.0169672818,0.0025,0,0,0,0.0025,0,0,0,0.0025,0.03,0.02,-0.02,0.02,0,0,0,0.02,0,0,0,0.02,-0.7948222656,0.0383046875,-10.1986230469,0.04,0,0,0,0.04,0,0,0,0.04,1
1.55619147085694E+018,869,1.55619147085673E+018,base_imu_link,0.5708025373,0.8208103974,0.0109909106,0.0182744308,0.0025,0,0,0,0.0025,0,0,0,0.0025,0.02,0.02,-0.02,0.02,0,0,0,0.02,0,0,0,0.02,0.0145557813,0.9625967969,-10.7299090625,0.04,0,0,0,0.04,0,0,0,0.04,1
1.55619147087698E+018,870,1.55619147087673E+018,base_imu_link,0.5706431816,0.8208793475,0.0133112523,0.0186082428,0.0025,0,0,0,0.0025,0,0,0,0.0025,0.03,0.02,-0.02,0.02,0,0,0,0.02,0,0,0,0.02,0.4500800781,0.8235507813,-10.0166757812,0.04,0,0,0,0.04,0,0,0,0.04,1
1.55619147090107E+018,871,1.55619147089835E+018,base_imu_link,0.5704689289,0.8209810793,0.0163985758,0.0169220364,0.0025,0,0,0,0.0025,0,0,0,0.0025,0.04,0.01,-0.02,0.02,0,0,0,0.02,0,0,0,0.02,-0.3592979688,-0.1819472656,-10.0837089844,0.04,0,0,0,0.04,0,0,0,0.04,1
1.55619147091691E+018,872,1.55619147091665E+018,base_imu_link,0.5702118151,0.8212386834,0.0129843957,0.0160286105,0.0025,0,0,0,0.0025,0,0,0,0.0025,0.02,0.01,-0.03,0.02,0,0,0,0.02,0,0,0,0.02,0.3592979688,1.0870870313,-10.6724520312,0.04,0,0,0,0.04,0,0,0,0.04,1
1.55619147093694E+018,873,1.55619147093671E+018,base_imu_link,0.570283763,0.8211334252,0.0163275347,0.0158031401,0.0025,0,0,0,0.0025,0,0,0,0.0025,0.03,0,-0.02,0.02,0,0,0,0.02,0,0,0,0.02,0.0383046875,0.4263311719,-9.4995625,0.04,0,0,0,0.04,0,0,0,0.04,1
1.55619147095686E+018,874,1.55619147095661E+018,base_imu_link,0.5700838555,0.8212794689,0.016536646,0.0151977281,0.0025,0,0,0,0.0025,0,0,0,0.0025,0.02,0,-0.02,0.02,0,0,0,0.02,0,0,0,0.02,-0.0574570313,0.4213515625,-10.0883055469,0.04,0,0,0,0.04,0,0,0,0.04,1
1.55619147097672E+018,875,1.5561914709764E+018,base_imu_link,0.5700178682,0.8213326381,0.016372701,0.0149753874,0.0025,0,0,0,0.0025,0,0,0,0.0025,0.01,0,-0.03,0.02,0,0,0,0.02,0,0,0,0.02,-0.340145625,1.0870870313,-10.2989813281,0.04,0,0,0,0.04,0,0,0,0.04,1
1.55619147099768E+018,876,1.5561914709967E+018,base_imu_link,0.5699444763,0.8212983179,0.0179199597,0.0176420507,0.0025,0,0,0,0.0025,0,0,0,0.0025,0.02,0,-0.02,0.02,0,0,0,0.02,0,0,0,0.02,-0.493364375,-0.2681328125,-10.3181336719,0.04,0,0,0,0.04,0,0,0,0.04,1
1.55619147101701E+018,877,1.55619147101664E+018,base_imu_link,0.5698960864,0.8214242806,0.0137447993,0.0170787106,0.0025,0,0,0,0.0025,0,0,0,0.0025,0.02,0,-0.03,0.02,0,0,0,0.02,0,0,0,0.02,-0.5745703125,-0.0095761719,-10.26565625,0.04,0,0,0,0.04,0,0,0,0.04,1
1.55619147103702E+018,878,1.55619147103662E+018,base_imu_link,0.5697475312,0.8215618103,0.0107616721,0.0175536034,0.0025,0,0,0,0.0025,0,0,0,0.0025,0.01,0,-0.03,0.02,0,0,0,0.02,0,0,0,0.02,0.2202519531,0.5075371094,-10.4092988281,0.04,0,0,0,0.04,0,0,0,0.04,1
1.55619147105686E+018,879,1.55619147105651E+018,base_imu_link,0.5696331602,0.8216474262,0.0121675541,0.0162948006,0.0025,0,0,0,0.0025,0,0,0,0.0025,0.01,0,-0.02,0.02,0,0,0,0.02,0,0,0,0.02,0.7902257031,0.6320273438,-9.8014034375,0.04,0,0,0,0.04,0,0,0,0.04,1
1.55619147107756E+018,880,1.5561914710764E+018,base_imu_link,0.5694869875,0.8217404932,0.0159316276,0.0131649595,0.0025,0,0,0,0.0025,0,0,0,0.0025,0.01,0,-0.03,0.02,0,0,0,0.02,0,0,0,0.02,-0.612875,0.9288886719,-10.3181336719,0.04,0,0,0,0.04,0,0,0,0.04,1
1.55619147109745E+018,881,1.55619147109673E+018,base_imu_link,0.569189647,0.8218816288,0.0161658949,0.0165044786,0.0025,0,0,0,0.0025,0,0,0,0.0025,0.03,0,-0.03,0.02,0,0,0,0.02,0,0,0,0.02,-0.2826885938,-0.1915234375,-10.2369277344,0.04,0,0,0,0.04,0,0,0,0.04,1
1.55619147111672E+018,882,1.55619147111647E+018,base_imu_link,0.5691502388,0.821986028,0.0129668527,0.0154543271,0.0025,0,0,0,0.0025,0,0,0,0.0025,0.01,0,-0.03,0.02,0,0,0,0.02,0,0,0,0.02,0.4359073438,0.9051397656,-10.0262519531,0.04,0,0,0,0.04,0,0,0,0.04,1
1.55619147113661E+018,883,1.55619147113639E+018,base_imu_link,0.5691668752,0.8219284224,0.0164436308,0.0145720132,0.0025,0,0,0,0.0025,0,0,0,0.0025,0.02,0,-0.02,0.02,0,0,0,0.02,0,0,0,0.02,-0.1294698438,-0.3734707031,-10.1986230469,0.04,0,0,0,0.04,0,0,0,0.04,1
1.55619147115664E+018,884,1.5561914711564E+018,base_imu_link,0.5690705494,0.8220887467,0.0130192871,0.0126214295,0.0025,0,0,0,0.0025,0,0,0,0.0025,0.01,0,-0.03,0.02,0,0,0,0.02,0,0,0,0.02,0.1673914844,0.2443839063,-10.1361864062,0.04,0,0,0,0.04,0,0,0,0.04,1
1.55619147117644E+018,885,1.55619147117622E+018,base_imu_link,0.5690948267,0.8220864755,0.013234526,0.0113908843,0.0025,0,0,0,0.0025,0,0,0,0.0025,-0.01,0,-0.03,0.02,0,0,0,0.02,0,0,0,0.02,-0.3447421875,1.1108359375,-10.1649149219,0.04,0,0,0,0.04,0,0,0,0.04,1
1.55619147119712E+018,886,1.55619147119646E+018,base_imu_link,0.5690948366,0.821996596,0.0154516117,0.0146256921,0.0025,0,0,0,0.0025,0,0,0,0.0025,0,0,-0.02,0.02,0,0,0,0.02,0,0,0,0.02,-0.8476827344,-0.6416035156,-10.1936434375,0.04,0,0,0,0.04,0,0,0,0.04,1
1.55619147121675E+018,887,1.55619147121641E+018,base_imu_link,0.5688865697,0.8222293766,0.0094014949,0.0147829285,0.0025,0,0,0,0.0025,0,0,0,0.0025,-0.02,0.01,-0.03,0.02,0,0,0,0.02,0,0,0,0.02,0.1436425781,0.8859874219,-9.8634570313,0.04,0,0,0,0.04,0,0,0,0.04,1
1.55619147123723E+018,888,1.55619147123684E+018,base_imu_link,0.5688673021,0.8221880168,0.0127569986,0.0153008713,0.0025,0,0,0,0.0025,0,0,0,0.0025,-0.01,0,-0.03,0.02,0,0,0,0.02,0,0,0,0.02,-0.0670332031,0.5745703125,-10.4043192187,0.04,0,0,0,0.04,0,0,0,0.04,1
1.55619147125651E+018,889,1.55619147125624E+018,base_imu_link,0.5686418687,0.8223242274,0.0135778999,0.0156502657,0.0025,0,0,0,0.0025,0,0,0,0.0025,0,0,-0.02,0.02,0,0,0,0.02,0,0,0,0.02,-0.9147159375,-0.4692324219,-10.2273515625,0.04,0,0,0,0.04,0,0,0,0.04,1
1.55619147127642E+018,890,1.55619147127618E+018,base_imu_link,0.5684200905,0.8225344007,0.0080250804,0.0164729626,0.0025,0,0,0,0.0025,0,0,0,0.0025,-0.01,0,-0.03,0.02,0,0,0,0.02,0,0,0,0.02,-0.2156553906,1.2449023438,-10.3135371094,0.04,0,0,0,0.04,0,0,0,0.04,1
1.55619147129726E+018,891,1.55619147129633E+018,base_imu_link,0.5683423078,0.8224942671,0.0113711767,0.0189973196,0.0025,0,0,0,0.0025,0,0,0,0.0025,0.01,-0.01,-0.02,0.02,0,0,0,0.02,0,0,0,0.02,0.3543183594,0.5795499219,-10.3805703125,0.04,0,0,0,0.04,0,0,0,0.04,1
1.55619147131617E+018,892,1.55619147131594E+018,base_imu_link,0.5680928902,0.8226720115,0.0132912757,0.017451977,0.0025,0,0,0,0.0025,0,0,0,0.0025,0.01,-0.01,-0.02,0.02,0,0,0,0.02,0,0,0,0.02,0.0095761719,0.2202519531,-9.9879472656,0.04,0,0,0,0.04,0,0,0,0.04,1
1.55619147133619E+018,893,1.55619147133596E+018,base_imu_link,0.567760883,0.8229291006,0.0128063253,0.0164703746,0.0025,0,0,0,0.0025,0,0,0,0.0025,0,-0.02,-0.03,0.02,0,0,0,0.02,0,0,0,0.02,0.1627949219,1.18284875,-10.2177753906,0.04,0,0,0,0.04,0,0,0,0.04,1
1.55619147135625E+018,894,1.55619147135595E+018,base_imu_link,0.5676521064,0.8229177643,0.0163964472,0.0175668927,0.0025,0,0,0,0.0025,0,0,0,0.0025,0.01,-0.03,-0.03,0.02,0,0,0,0.02,0,0,0,0.02,0.2252315625,0.2777089844,-9.9687949219,0.04,0,0,0,0.04,0,0,0,0.04,1
1.55619147137628E+018,895,1.55619147137606E+018,base_imu_link,0.5675544733,0.823019456,0.0164021315,0.0158702515,0.0025,0,0,0,0.0025,0,0,0,0.0025,0,-0.03,-0.03,0.02,0,0,0,0.02,0,0,0,0.02,0.0191523438,0.6845047656,-10.2894051562,0.04,0,0,0,0.04,0,0,0,0.04,1
1.5561914713972E+018,896,1.55619147139626E+018,base_imu_link,0.5673258105,0.823148574,0.0173673377,0.0163164145,0.0025,0,0,0,0.0025,0,0,0,0.0025,0,-0.03,-0.03,0.02,0,0,0,0.02,0,0,0,0.02,0.7228094531,0.7565175781,-10.1986230469,0.04,0,0,0,0.04,0,0,0,0.04,1
1.55619147141622E+018,897,1.55619147141594E+018,base_imu_link,0.5674490989,0.8230328386,0.020374723,0.014259639,0.0025,0,0,0,0.0025,0,0,0,0.0025,0.01,-0.04,-0.02,0.02,0,0,0,0.02,0,0,0,0.02,0.3638945313,0.229828125,-10.1649149219,0.04,0,0,0,0.04,0,0,0,0.04,1
1.55619147143612E+018,898,1.55619147143585E+018,base_imu_link,0.5675630457,0.8229895033,0.0201108973,0.0124907293,0.0025,0,0,0,0.0025,0,0,0,0.0025,-0.01,-0.05,-0.03,0.02,0,0,0,0.02,0,0,0,0.02,-0.5266894531,1.0200538281,-11.0842274219,0.04,0,0,0,0.04,0,0,0,0.04,1
1.55619147145645E+018,899,1.55619147145608E+018,base_imu_link,0.5677000046,0.8228372395,0.0202505533,0.0156683487,0.0025,0,0,0,0.0025,0,0,0,0.0025,0,-0.05,-0.02,0.02,0,0,0,0.02,0,0,0,0.02,0.0287285156,-0.1390460156,-9.9687949219,0.04,0,0,0,0.04,0,0,0,0.04,1
1.55619147147609E+018,900,1.55619147147583E+018,base_imu_link,0.5679567825,0.8227511405,0.0175130964,0.0141048016,0.0025,0,0,0,0.0025,0,0,0,0.0025,-0.01,-0.05,-0.03,0.02,0,0,0,0.02,0,0,0,0.02,0.1627949219,0.1340664063,-10.3614179687,0.04,0,0,0,0.04,0,0,0,0.04,1
1.5561914714961E+018,901,1.55619147149587E+018,base_imu_link,0.5681285512,0.8226723972,0.0165380995,0.0129061043,0.0025,0,0,0,0.0025,0,0,0,0.0025,-0.01,-0.05,-0.02,0.02,0,0,0,0.02,0,0,0,0.02,-0.1103175,0.0957617188,-10.8065184375,0.04,0,0,0,0.04,0,0,0,0.04,1
1.55619147151602E+018,902,1.55619147151575E+018,base_imu_link,0.5683480288,0.8225536027,0.0149398192,0.0127628644,0.0025,0,0,0,0.0025,0,0,0,0.0025,-0.01,-0.05,-0.02,0.02,0,0,0,0.02,0,0,0,0.02,0.1673914844,0.0478808594,-10.0932851562,0.04,0,0,0,0.04,0,0,0,0.04,1
1.55619147153601E+018,903,1.55619147153574E+018,base_imu_link,0.568447419,0.822521853,0.0139443645,0.011440627,0.0025,0,0,0,0.0025,0,0,0,0.0025,-0.01,-0.05,-0.03,0.02,0,0,0,0.02,0,0,0,0.02,0.0574570313,0.8810078125,-10.46177625,0.04,0,0,0,0.04,0,0,0,0.04,1
1.55619147155588E+018,904,1.55619147155566E+018,base_imu_link,0.5684913574,0.8224407571,0.0156880728,0.0127539005,0.0025,0,0,0,0.0025,0,0,0,0.0025,0.02,-0.05,-0.02,0.02,0,0,0,0.02,0,0,0,0.02,-0.1436425781,0.1198936719,-10.4522000781,0.04,0,0,0,0.04,0,0,0,0.04,1
1.55619147157596E+018,905,1.55619147157571E+018,base_imu_link,0.5684937879,0.8224716998,0.0139221576,0.0126999831,0.0025,0,0,0,0.0025,0,0,0,0.0025,0.01,-0.05,-0.03,0.02,0,0,0,0.02,0,0,0,0.02,0.229828125,1.2832070313,-10.0308485156,0.04,0,0,0,0.04,0,0,0,0.04,1
1.55619147159586E+018,906,1.55619147159557E+018,base_imu_link,0.5685235631,0.822345154,0.0179338265,0.0144147049,0.0025,0,0,0,0.0025,0,0,0,0.0025,0.02,-0.05,-0.03,0.02,0,0,0,0.02,0,0,0,0.02,-0.3497217969,0.2585566406,-10.87853125,0.04,0,0,0,0.04,0,0,0,0.04,1
1.55619147161589E+018,907,1.55619147161561E+018,base_imu_link,0.5685043924,0.8223815906,0.0160802426,0.0152545418,0.0025,0,0,0,0.0025,0,0,0,0.0025,0.02,-0.05,-0.03,0.02,0,0,0,0.02,0,0,0,0.02,-0.4454835156,0.3784503125,-10.2702528125,0.04,0,0,0,0.04,0,0,0,0.04,1
1.55619147163593E+018,908,1.5561914716356E+018,base_imu_link,0.5685371972,0.8223562207,0.0145511102,0.0168513164,0.0025,0,0,0,0.0025,0,0,0,0.0025,0,-0.04,-0.03,0.02,0,0,0,0.02,0,0,0,0.02,0.5266894531,1.3119355469,-9.4804101563,0.04,0,0,0,0.04,0,0,0,0.04,1
1.55619147165599E+018,909,1.55619147165568E+018,base_imu_link,0.5685961839,0.8222037414,0.0197257065,0.0170377159,0.0025,0,0,0,0.0025,0,0,0,0.0025,0.01,-0.05,-0.03,0.02,0,0,0,0.02,0,0,0,0.02,-0.033708125,0.229828125,-9.9783710938,0.04,0,0,0,0.04,0,0,0,0.04,1
1.5561914716758E+018,910,1.55619147167557E+018,base_imu_link,0.5683984244,0.822382339,0.0184330886,0.0164542027,0.0025,0,0,0,0.0025,0,0,0,0.0025,0.01,-0.04,-0.03,0.02,0,0,0,0.02,0,0,0,0.02,-0.1486221875,0.7228094531,-11.108359375,0.04,0,0,0,0.04,0,0,0,0.04,1
1.556191471696E+018,911,1.55619147169558E+018,base_imu_link,0.5685160084,0.8222797355,0.0185355145,0.0173787079,0.0025,0,0,0,0.0025,0,0,0,0.0025,0.01,-0.04,-0.03,0.02,0,0,0,0.02,0,0,0,0.02,0.3209932813,0.0383046875,-10.1794707031,0.04,0,0,0,0.04,0,0,0,0.04,1
1.5561914717159E+018,912,1.5561914717155E+018,base_imu_link,0.5686579201,0.8222534599,0.0175617667,0.0147987123,0.0025,0,0,0,0.0025,0,0,0,0.0025,0,-0.04,-0.03,0.02,0,0,0,0.02,0,0,0,0.02,-0.2489804688,-0.1390460156,-10.5192332812,0.04,0,0,0,0.04,0,0,0,0.04,1
1.55619147173598E+018,913,1.55619147173557E+018,base_imu_link,0.5686002993,0.8223595398,0.0145940177,0.0143353271,0.0025,0,0,0,0.0025,0,0,0,0.0025,0,-0.04,-0.03,0.02,0,0,0,0.02,0,0,0,0.02,-0.3064375,1.0054980469,-10.2465039062,0.04,0,0,0,0.04,0,0,0,0.04,1
1.55619147175567E+018,914,1.55619147175545E+018,base_imu_link,0.5686699932,0.8222305413,0.0160437401,0.0171456777,0.0025,0,0,0,0.0025,0,0,0,0.0025,0.01,-0.04,-0.02,0.02,0,0,0,0.02,0,0,0,0.02,-0.56997375,0.2585566406,-9.1885284375,0.04,0,0,0,0.04,0,0,0,0.04,1
1.55619147177564E+018,915,1.55619147177541E+018,base_imu_link,0.5685580535,0.8223126503,0.0138881463,0.0187287054,0.0025,0,0,0,0.0025,0,0,0,0.0025,0.01,-0.04,-0.03,0.02,0,0,0,0.02,0,0,0,0.02,-0.612875,0.493364375,-10.4905047656,0.04,0,0,0,0.04,0,0,0,0.04,1
1.55619147179628E+018,916,1.55619147179562E+018,base_imu_link,0.5685715107,0.8222750942,0.0125681382,0.0207881837,0.0025,0,0,0,0.0025,0,0,0,0.0025,0.01,-0.04,-0.02,0.02,0,0,0,0.02,0,0,0,0.02,0.0528604688,0.1578153125,-9.95921875,0.04,0,0,0,0.04,0,0,0,0.04,1
1.55619147181569E+018,917,1.5561914718154E+018,base_imu_link,0.5684796949,0.8223882448,0.0118977363,0.0191534632,0.0025,0,0,0,0.0025,0,0,0,0.0025,0.01,-0.03,-0.02,0.02,0,0,0,0.02,0,0,0,0.02,-0.4742120313,-0.0095761719,-10.2177753906,0.04,0,0,0,0.04,0,0,0,0.04,1
1.55619147183568E+018,918,1.55619147183528E+018,base_imu_link,0.5682669441,0.8225634927,0.0093090383,0.0193732433,0.0025,0,0,0,0.0025,0,0,0,0.0025,0,-0.04,-0.03,0.02,0,0,0,0.02,0,0,0,0.02,-0.5458417969,0.45965625,-10.5433652344,0.04,0,0,0,0.04,0,0,0,0.04,1
1.55619147185547E+018,919,1.55619147185526E+018,base_imu_link,0.5680778347,0.822661694,0.0086074361,0.0210053087,0.0025,0,0,0,0.0025,0,0,0,0.0025,-0.01,-0.03,-0.03,0.02,0,0,0,0.02,0,0,0,0.02,-0.3160136719,0.8810078125,-10.0262519531,0.04,0,0,0,0.04,0,0,0,0.04,1
1.5561914718754E+018,920,1.55619147187517E+018,base_imu_link,0.5678620273,0.8227365975,0.0104178849,0.0229929709,0.0025,0,0,0,0.0025,0,0,0,0.0025,0,-0.03,-0.02,0.02,0,0,0,0.02,0,0,0,0.02,-0.1103175,0.0528604688,-10.3085575,0.04,0,0,0,0.04,0,0,0,0.04,1
1.55619147189565E+018,921,1.55619147189522E+018,base_imu_link,0.5674805727,0.8230513075,0.0091198503,0.0216604046,0.0025,0,0,0,0.0025,0,0,0,0.0025,0,-0.03,-0.03,0.02,0,0,0,0.02,0,0,0,0.02,-0.3734707031,0.5745703125,-10.7253125,0.04,0,0,0,0.04,0,0,0,0.04,1
1.55619147191529E+018,922,1.55619147191505E+018,base_imu_link,0.5672309071,0.8231931127,0.0093757418,0.0226780232,0.0025,0,0,0,0.0025,0,0,0,0.0025,-0.01,-0.03,-0.02,0.02,0,0,0,0.02,0,0,0,0.02,-0.4309277344,1.0679346875,-10.7490614063,0.04,0,0,0,0.04,0,0,0,0.04,1
1.5561914719356E+018,923,1.55619147193511E+018,base_imu_link,0.5670024118,0.8232663124,0.0110397656,0.0248790558,0.0025,0,0,0,0.0025,0,0,0,0.0025,0,-0.03,-0.02,0.02,0,0,0,0.02,0,0,0,0.02,-0.1103175,0.0095761719,-9.65278125,0.04,0,0,0,0.04,0,0,0,0.04,1
1.55619147195549E+018,924,1.5561914719552E+018,base_imu_link,0.566709272,0.8235355602,0.0095509453,0.0232069267,0.0025,0,0,0,0.0025,0,0,0,0.0025,0,-0.03,-0.03,0.02,0,0,0,0.02,0,0,0,0.02,0.2252315625,0.87641125,-9.8921855469,0.04,0,0,0,0.04,0,0,0,0.04,1
1.55619147197534E+018,925,1.55619147197503E+018,base_imu_link,0.5664995141,0.8236521563,0.0128335989,0.0225992176,0.0025,0,0,0,0.0025,0,0,0,0.0025,0.01,-0.03,-0.02,0.02,0,0,0,0.02,0,0,0,0.02,-0.1390460156,0.1053378906,-10.648703125,0.04,0,0,0,0.04,0,0,0,0.04,1
1.5561914719957E+018,926,1.55619147199505E+018,base_imu_link,0.5661831074,0.8239186187,0.0116256954,0.0214392601,0.0025,0,0,0,0.0025,0,0,0,0.0025,-0.01,-0.02,-0.03,0.02,0,0,0,0.02,0,0,0,0.02,-0.1769676563,0.6320273438,-10.231948125,0.04,0,0,0,0.04,0,0,0,0.04,1
1.55619147201535E+018,927,1.55619147201511E+018,base_imu_link,0.5659448934,0.8240527552,0.0126155985,0.0220063843,0.0025,0,0,0,0.0025,0,0,0,0.0025,-0.01,-0.02,-0.03,0.02,0,0,0,0.02,0,0,0,0.02,-0.2826885938,0.995921875,-10.0212723437,0.04,0,0,0,0.04,0,0,0,0.04,1
1.5561914720353E+018,928,1.55619147203505E+018,base_imu_link,0.5657973273,0.8240659987,0.0146717088,0.0239448348,0.0025,0,0,0,0.0025,0,0,0,0.0025,-0.01,-0.02,-0.02,0.02,0,0,0,0.02,0,0,0,0.02,0.2443839063,0.4213515625,-10.1649149219,0.04,0,0,0,0.04,0,0,0,0.04,1
1.55619147205532E+018,929,1.55619147205512E+018,base_imu_link,0.5657220011,0.8241585089,0.0155513656,0.0218980534,0.0025,0,0,0,0.0025,0,0,0,0.0025,-0.01,-0.01,-0.03,0.02,0,0,0,0.02,0,0,0,0.02,-0.1103175,0.3638945313,-9.9783710938,0.04,0,0,0,0.04,0,0,0,0.04,1
1.55619147207508E+018,930,1.55619147207487E+018,base_imu_link,0.5657441453,0.8241656032,0.0152455219,0.0212648692,0.0025,0,0,0,0.0025,0,0,0,0.0025,0,-0.01,-0.02,0.02,0,0,0,0.02,0,0,0,0.02,-0.0095761719,0.1053378906,-9.9400664063,0.04,0,0,0,0.04,0,0,0,0.04,1
1.5561914720957E+018,931,1.55619147209499E+018,base_imu_link,0.5656585414,0.8242875122,0.014111242,0.0195290708,0.0025,0,0,0,0.0025,0,0,0,0.0025,0,-0.01,-0.02,0.02,0,0,0,0.02,0,0,0,0.02,-0.4454835156,0.8572589063,-10.0741328125,0.04,0,0,0,0.04,0,0,0,0.04,1
1.55619147211527E+018,932,1.55619147211502E+018,base_imu_link,0.565584719,0.8242682035,0.0149035041,0.0217655671,0.0025,0,0,0,0.0025,0,0,0,0.0025,0.01,-0.01,-0.02,0.02,0,0,0,0.02,0,0,0,0.02,0.0191523438,0.7515379688,-10.2752324219,0.04,0,0,0,0.04,0,0,0,0.04,1
1.55619147213495E+018,933,1.55619147213467E+018,base_imu_link,0.5655872102,0.8242432674,0.0164312636,0.0215443131,0.0025,0,0,0,0.0025,0,0,0,0.0025,0.01,0,-0.03,0.02,0,0,0,0.02,0,0,0,0.02,0.26353625,0.4021992188,-9.5045421094,0.04,0,0,0,0.04,0,0,0,0.04,1
1.55619147215502E+018,934,1.55619147215471E+018,base_imu_link,0.5655030362,0.8243326673,0.017210947,0.0196405919,0.0025,0,0,0,0.0025,0,0,0,0.0025,0.01,0,-0.03,0.02,0,0,0,0.02,0,0,0,0.02,-0.3880264844,-0.0624366406,-11.0554989062,0.04,0,0,0,0.04,0,0,0,0.04,1
1.55619147217566E+018,935,1.55619147217535E+018,base_imu_link,0.5655294864,0.82437859,0.0147029199,0.0189779977,0.0025,0,0,0,0.0025,0,0,0,0.0025,0,0,-0.03,0.02,0,0,0,0.02,0,0,0,0.02,-0.5649941406,0.6270477344,-10.3468621875,0.04,0,0,0,0.04,0,0,0,0.04,1
1.55619147219626E+018,936,1.55619147219594E+018,base_imu_link,0.5654701282,0.8243788506,0.0143134724,0.0209324957,0.0025,0,0,0,0.0025,0,0,0,0.0025,0,0.01,-0.03,0.02,0,0,0,0.02,0,0,0,0.02,-0.1769676563,0.842703125,-9.7822510938,0.04,0,0,0,0.04,0,0,0,0.04,1
1.55619147221521E+018,937,1.55619147221488E+018,base_imu_link,0.5654292709,0.8243478504,0.0160174535,0.0219955093,0.0025,0,0,0,0.0025,0,0,0,0.0025,0,0,-0.02,0.02,0,0,0,0.02,0,0,0,0.02,-0.1819472656,-0.076609375,-10.7107567187,0.04,0,0,0,0.04,0,0,0,0.04,1
1.55619147223485E+018,938,1.55619147223464E+018,base_imu_link,0.5652013201,0.8245833199,0.0139651292,0.02036643,0.0025,0,0,0,0.0025,0,0,0,0.0025,0,0.01,-0.03,0.02,0,0,0,0.02,0,0,0,0.02,-0.5603975781,0.6174715625,-10.538385625,0.04,0,0,0,0.04,0,0,0,0.04,1
1.55619147225499E+018,939,1.55619147225478E+018,base_imu_link,0.5651517548,0.8245826795,0.0136298307,0.0219345927,0.0025,0,0,0,0.0025,0,0,0,0.0025,0,0.01,-0.02,0.02,0,0,0,0.02,0,0,0,0.02,-0.0145557813,0.5412452344,-10.2032196094,0.04,0,0,0,0.04,0,0,0,0.04,1
1.55619147227484E+018,940,1.55619147227459E+018,base_imu_link,0.5651706251,0.8245721749,0.0145099037,0.0212686538,0.0025,0,0,0,0.0025,0,0,0,0.0025,0,0.01,-0.02,0.02,0,0,0,0.02,0,0,0,0.02,-1.0342265625,-0.6320273438,-10.9455644531,0.04,0,0,0,0.04,0,0,0,0.04,1
1.55619147229507E+018,941,1.55619147229467E+018,base_imu_link,0.5650460616,0.8247319296,0.0093094849,0.0212961527,0.0025,0,0,0,0.0025,0,0,0,0.0025,-0.02,0.02,-0.02,0.02,0,0,0,0.02,0,0,0,0.02,-0.9721729688,0.8331269531,-11.0267703906,0.04,0,0,0,0.04,0,0,0,0.04,1
1.55619147231508E+018,942,1.55619147231477E+018,base_imu_link,0.5650182135,0.8246666947,0.0094864265,0.0242748603,0.0025,0,0,0,0.0025,0,0,0,0.0025,-0.03,0.04,-0.02,0.02,0,0,0,0.02,0,0,0,0.02,-0.7565175781,0.8285303906,-11.2998828125,0.04,0,0,0,0.04,0,0,0,0.04,1
1.55619147233486E+018,943,1.55619147233463E+018,base_imu_link,0.5647369516,0.8247992189,0.010245709,0.0259509052,0.0025,0,0,0,0.0025,0,0,0,0.0025,-0.03,0.05,-0.02,0.02,0,0,0,0.02,0,0,0,0.02,-1.4747304688,0.5220928906,-12.0226922656,0.04,0,0,0,0.04,0,0,0,0.04,1
1.55619147235479E+018,944,1.55619147235458E+018,base_imu_link,0.5642329537,0.8250906908,0.0091935587,0.0279643404,0.0025,0,0,0,0.0025,0,0,0,0.0025,-0.03,0.08,-0.03,0.02,0,0,0,0.02,0,0,0,0.02,-0.4359073438,0.9434444531,-11.4768504687,0.04,0,0,0,0.04,0,0,0,0.04,1
1.55619147237472E+018,945,1.55619147237446E+018,base_imu_link,0.5638599181,0.8253225575,0.0109720996,0.0280050339,0.0025,0,0,0,0.0025,0,0,0,0.0025,-0.01,0.1,-0.03,0.02,0,0,0,0.02,0,0,0,0.02,-0.6366239063,0.8618554688,-11.4052207031,0.04,0,0,0,0.04,0,0,0,0.04,1
1.55619147239531E+018,946,1.55619147239478E+018,base_imu_link,0.5633392573,0.8256556608,0.011978673,0.028251058,0.0025,0,0,0,0.0025,0,0,0,0.0025,0.01,0.12,-0.03,0.02,0,0,0,0.02,0,0,0,0.02,-0.8331269531,0.7948222656,-11.5343075,0.04,0,0,0,0.04,0,0,0,0.04,1
1.55619147241469E+018,947,1.55619147241443E+018,base_imu_link,0.5630359258,0.8258470373,0.0122996814,0.0285645754,0.0025,0,0,0,0.0025,0,0,0,0.0025,0.02,0.14,-0.02,0.02,0,0,0,0.02,0,0,0,0.02,-0.6511796875,1.3169151563,-11.4193934375,0.04,0,0,0,0.04,0,0,0,0.04,1
1.55619147243482E+018,948,1.55619147243449E+018,base_imu_link,0.5628534939,0.8259159631,0.0144279659,0.0291650479,0.0025,0,0,0,0.0025,0,0,0,0.0025,0.04,0.16,-0.01,0.02,0,0,0,0.02,0,0,0,0.02,-0.6703320313,-0.1915234375,-10.9118563281,0.04,0,0,0,0.04,0,0,0,0.04,1
1.55619147245458E+018,949,1.55619147245432E+018,base_imu_link,0.5624553568,0.8263025242,0.0119514231,0.0269309037,0.0025,0,0,0,0.0025,0,0,0,0.0025,0.02,0.17,-0.02,0.02,0,0,0,0.02,0,0,0,0.02,-0.6703320313,0.6462000781,-11.0796308594,0.04,0,0,0,0.04,0,0,0,0.04,1
1.55619147247445E+018,950,1.55619147247421E+018,base_imu_link,0.5622450652,0.8264446472,0.0125416803,0.0266915336,0.0025,0,0,0,0.0025,0,0,0,0.0025,0,0.18,-0.02,0.02,0,0,0,0.02,0,0,0,0.02,-0.2922647656,1.5513398438,-10.8927039844,0.04,0,0,0,0.04,0,0,0,0.04,1
1.55619147249458E+018,951,1.5561914724942E+018,base_imu_link,0.5621306198,0.8264296677,0.0168469801,0.0271909899,0.0025,0,0,0,0.0025,0,0,0,0.0025,0.02,0.18,-0.01,0.02,0,0,0,0.02,0,0,0,0.02,-0.7419617969,0.1007413281,-10.9501610156,0.04,0,0,0,0.04,0,0,0,0.04,1
1.55619147251466E+018,952,1.55619147251416E+018,base_imu_link,0.5618302,0.8267109884,0.0149831352,0.0259089519,0.0025,0,0,0,0.0025,0,0,0,0.0025,0.01,0.18,-0.01,0.02,0,0,0,0.02,0,0,0,0.02,-0.0237489063,0.7902257031,-10.342265625,0.04,0,0,0,0.04,0,0,0,0.04,1
1.55619147253453E+018,953,1.55619147253427E+018,base_imu_link,0.5618906857,0.8266763621,0.0175174737,0.0240455341,0.0025,0,0,0,0.0025,0,0,0,0.0025,0.01,0.18,0,0.02,0,0,0,0.02,0,0,0,0.02,-0.2443839063,0.45965625,-10.3181336719,0.04,0,0,0,0.04,0,0,0,0.04,1
1.55619147255418E+018,954,1.55619147255397E+018,base_imu_link,0.561806685,0.826774342,0.0178275746,0.02235204,0.0025,0,0,0,0.0025,0,0,0,0.0025,0.02,0.17,0,0.02,0,0,0,0.02,0,0,0,0.02,-0.8955635938,-0.3209932813,-10.4763320312,0.04,0,0,0,0.04,0,0,0,0.04,1
1.55619147257443E+018,955,1.55619147257418E+018,base_imu_link,0.5617094428,0.8269442374,0.0137503579,0.02136955,0.0025,0,0,0,0.0025,0,0,0,0.0025,-0.01,0.17,-0.01,0.02,0,0,0,0.02,0,0,0,0.02,-0.2968613281,1.106239375,-10.035828125,0.04,0,0,0,0.04,0,0,0,0.04,1
1.55619147259441E+018,956,1.55619147259414E+018,base_imu_link,0.5618911374,0.8267425846,0.0169569613,0.0220796289,0.0025,0,0,0,0.0025,0,0,0,0.0025,0.01,0.16,0,0.02,0,0,0,0.02,0,0,0,0.02,0.1627949219,-0.0528604688,-9.5715753125,0.04,0,0,0,0.04,0,0,0,0.04,1
1.55619147261435E+018,957,1.55619147261412E+018,base_imu_link,0.5619544998,0.8268118091,0.016465236,0.0178400812,0.0025,0,0,0,0.0025,0,0,0,0.0025,0.01,0.16,-0.01,0.02,0,0,0,0.02,0,0,0,0.02,0.0478808594,0.3160136719,-9.6960655469,0.04,0,0,0,0.04,0,0,0,0.04,1
1.55619147263444E+018,958,1.55619147263413E+018,base_imu_link,0.5620186055,0.8268026155,0.0171404059,0.015450845,0.0025,0,0,0,0.0025,0,0,0,0.0025,0.01,0.15,-0.01,0.02,0,0,0,0.02,0,0,0,0.02,0.5316690625,0.9576171875,-9.4325292969,0.04,0,0,0,0.04,0,0,0,0.04,1
1.55619147265473E+018,959,1.55619147265437E+018,base_imu_link,0.5621432098,0.8266519249,0.0215628874,0.0132909238,0.0025,0,0,0,0.0025,0,0,0,0.0025,0.02,0.14,-0.01,0.02,0,0,0,0.02,0,0,0,0.02,0.1627949219,0.0287285156,-9.4995625,0.04,0,0,0,0.04,0,0,0,0.04,1
1.55619147267439E+018,960,1.55619147267409E+018,base_imu_link,0.5622804859,0.8266169259,0.0209357338,0.0103347968,0.0025,0,0,0,0.0025,0,0,0,0.0025,0,0.13,-0.01,0.02,0,0,0,0.02,0,0,0,0.02,-0.3497217969,0.732385625,-9.6577608594,0.04,0,0,0,0.04,0,0,0,0.04,1
1.55619147269425E+018,961,1.55619147269386E+018,base_imu_link,0.5626087676,0.8263536422,0.021666269,0.0118998049,0.0025,0,0,0,0.0025,0,0,0,0.0025,0,0.12,-0.01,0.02,0,0,0,0.02,0,0,0,0.02,0.0287285156,0.4309277344,-9.4516816406,0.04,0,0,0,0.04,0,0,0,0.04,1
1.55619147271409E+018,962,1.55619147271386E+018,base_imu_link,0.5628456483,0.8261912643,0.0221803309,0.0109910832,0.0025,0,0,0,0.0025,0,0,0,0.0025,0,0.11,-0.01,0.02,0,0,0,0.02,0,0,0,0.02,0.1673914844,0.15321875,-9.6623574219,0.04,0,0,0,0.04,0,0,0,0.04,1
1.55619147273412E+018,963,1.55619147273386E+018,base_imu_link,0.5632465625,0.8259532565,0.0217855349,0.0089397111,0.0025,0,0,0,0.0025,0,0,0,0.0025,-0.01,0.1,-0.02,0.02,0,0,0,0.02,0,0,0,0.02,-0.1486221875,0.8139746094,-9.5619991406,0.04,0,0,0,0.04,0,0,0,0.04,1
1.55619147275427E+018,964,1.55619147275396E+018,base_imu_link,0.563437393,0.82576667,0.0232440373,0.01036463,0.0025,0,0,0,0.0025,0,0,0,0.0025,-0.01,0.09,-0.01,0.02,0,0,0,0.02,0,0,0,0.02,0.5075371094,0.4359073438,-9.3367675781,0.04,0,0,0,0.04,0,0,0,0.04,1
1.55619147277417E+018,965,1.55619147277393E+018,base_imu_link,0.5638446136,0.8254693883,0.0247641374,0.0081411407,0.0025,0,0,0,0.0025,0,0,0,0.0025,-0.01,0.07,-0.01,0.02,0,0,0,0.02,0,0,0,0.02,-0.033708125,0.493364375,-9.7772714844,0.04,0,0,0,0.04,0,0,0,0.04,1
1.55619147279414E+018,966,1.55619147279388E+018,base_imu_link,0.5641981664,0.8252220502,0.0248289954,0.0085157486,0.0025,0,0,0,0.0025,0,0,0,0.0025,-0.01,0.06,-0.01,0.02,0,0,0,0.02,0,0,0,0.02,0.87641125,0.953020625,-9.3321710156,0.04,0,0,0,0.04,0,0,0,0.04,1
1.55619147281409E+018,967,1.55619147281379E+018,base_imu_link,0.5646078016,0.8248225538,0.0290337036,0.0065443985,0.0025,0,0,0,0.0025,0,0,0,0.0025,-0.01,0.05,-0.01,0.02,0,0,0,0.02,0,0,0,0.02,0.6270477344,0.2681328125,-9.6240527344,0.04,0,0,0,0.04,0,0,0,0.04,1
1.5561914728341E+018,968,1.55619147283385E+018,base_imu_link,0.5650113362,0.8245472845,0.0294746072,0.0039004071,0.0025,0,0,0,0.0025,0,0,0,0.0025,-0.01,0.03,-0.01,0.02,0,0,0,0.02,0,0,0,0.02,0.0191523438,0.8043984375,-9.269734375,0.04,0,0,0,0.04,0,0,0,0.04,1
1.55619147285397E+018,969,1.55619147285369E+018,base_imu_link,0.5656385768,0.82408182,0.0302009891,0.0054822187,0.0025,0,0,0,0.0025,0,0,0,0.0025,0,0.02,0,0.02,0,0,0,0.02,0,0,0,0.02,0.4788085938,0.3543183594,-9.3130186719,0.04,0,0,0,0.04,0,0,0,0.04,1
1.55619147287426E+018,970,1.5561914728739E+018,base_imu_link,0.5663795999,0.8235766155,0.0303124407,0.0041064721,0.0025,0,0,0,0.0025,0,0,0,0.0025,0,0,0,0.02,0,0,0,0.02,0,0,0,0.02,0.7182128906,0.536265625,-9.3271914063,0.04,0,0,0,0.04,0,0,0,0.04,1
1.556191472894E+018,971,1.55619147289371E+018,base_imu_link,0.5669832862,0.8231147247,0.0317111183,0.0025511009,0.0025,0,0,0,0.0025,0,0,0,0.0025,-0.01,-0.01,-0.01,0.02,0,0,0,0.02,0,0,0,0.02,1.0775108594,1.1636964063,-9.226833125,0.04,0,0,0,0.04,0,0,0,0.04,1
1.55619147291368E+018,972,1.55619147291345E+018,base_imu_link,0.5676003923,0.8225067116,0.0362001343,0.0014333048,0.0025,0,0,0,0.0025,0,0,0,0.0025,0.01,-0.03,0,0.02,0,0,0,0.02,0,0,0,0.02,0.7902257031,0.3976026563,-8.997005,0.04,0,0,0,0.04,0,0,0,0.04,1
1.5561914729339E+018,973,1.55619147293366E+018,base_imu_link,0.568339544,0.8219802057,0.0365878905,-0.0001745564,0.0025,0,0,0,0.0025,0,0,0,0.0025,0,-0.04,-0.01,0.02,0,0,0,0.02,0,0,0,0.02,0.4788085938,1.4747304688,-9.5428467969,0.04,0,0,0,0.04,0,0,0,0.04,1
1.55619147295384E+018,974,1.55619147295362E+018,base_imu_link,0.5691202113,0.8212661939,0.0402160785,0.0025866611,0.0025,0,0,0,0.0025,0,0,0,0.0025,0.01,-0.06,-0.01,0.02,0,0,0,0.02,0,0,0,0.02,1.4318292188,0.2394042969,-9.2172569531,0.04,0,0,0,0.04,0,0,0,0.04,1
1.55619147297387E+018,975,1.55619147297359E+018,base_imu_link,0.5701142047,0.8205393492,0.0409984291,-0.0020245412,0.0025,0,0,0,0.0025,0,0,0,0.0025,0.01,-0.07,-0.01,0.02,0,0,0,0.02,0,0,0,0.02,1.1253917188,1.0009014844,-9.2555616406,0.04,0,0,0,0.04,0,0,0,0.04,1
1.5561914729938E+018,976,1.55619147299351E+018,base_imu_link,0.570862639,0.819875585,0.0437232274,-0.002855143,0.0025,0,0,0,0.0025,0,0,0,0.0025,0.02,-0.09,-0.01,0.02,0,0,0,0.02,0,0,0,0.02,1.3981210938,0.7086367188,-9.3654960938,0.04,0,0,0,0.04,0,0,0,0.04,1
1.55619147301375E+018,977,1.5561914730135E+018,base_imu_link,0.571905081,0.8190179805,0.0458601761,-0.0055650902,0.0025,0,0,0,0.0025,0,0,0,0.0025,0.02,-0.09,-0.01,0.02,0,0,0,0.02,0,0,0,0.02,1.0679346875,0.3160136719,-10.1220136719,0.04,0,0,0,0.04,0,0,0,0.04,1
1.55619147303364E+018,978,1.55619147303339E+018,base_imu_link,0.5729749395,0.8183049179,0.0449444901,-0.0075347727,0.0025,0,0,0,0.0025,0,0,0,0.0025,0.01,-0.11,-0.01,0.02,0,0,0,0.02,0,0,0,0.02,-0.0095761719,1.2640546875,-10.955140625,0.04,0,0,0,0.04,0,0,0,0.04,1
1.55619147305366E+018,979,1.55619147305337E+018,base_imu_link,0.5740861586,0.8175901046,0.0442978875,-0.0030332417,0.0025,0,0,0,0.0025,0,0,0,0.0025,0.03,-0.12,0,0.02,0,0,0,0.02,0,0,0,0.02,0.45965625,-0.842703125,-11.0987832031,0.04,0,0,0,0.04,0,0,0,0.04,1
1.55619147307349E+018,980,1.55619147307328E+018,base_imu_link,0.5754678407,0.8169192934,0.0381615331,-0.0048300963,0.0025,0,0,0,0.0025,0,0,0,0.0025,0,-0.15,-0.01,0.02,0,0,0,0.02,0,0,0,0.02,0.1198936719,-0.0478808594,-11.6829296875,0.04,0,0,0,0.04,0,0,0,0.04,1
1.55619147309373E+018,981,1.5561914730933E+018,base_imu_link,0.5767838223,0.8161732321,0.0341950642,-0.0035178282,0.0025,0,0,0,0.0025,0,0,0,0.0025,0.03,-0.18,0.01,0.02,0,0,0,0.02,0,0,0,0.02,-0.4071788281,0.9863457031,-11.6683739062,0.04,0,0,0,0.04,0,0,0,0.04,1
1.55619147311369E+018,982,1.55619147311331E+018,base_imu_link,0.5775900177,0.8156972072,0.0320416359,0.0010822094,0.0025,0,0,0,0.0025,0,0,0,0.0025,0.04,-0.21,0,0.02,0,0,0,0.02,0,0,0,0.02,0.2489804688,1.5275909375,-11.8169960937,0.04,0,0,0,0.04,0,0,0,0.04,1
1.55619147313356E+018,983,1.55619147313326E+018,base_imu_link,0.5783299747,0.8151598884,0.0320636837,0.0045515824,0.0025,0,0,0,0.0025,0,0,0,0.0025,0.06,-0.23,-0.01,0.02,0,0,0,0.02,0,0,0,0.02,0.1244902344,0.4405039063,-11.0842274219,0.04,0,0,0,0.04,0,0,0,0.04,1
1.55619147315356E+018,984,1.55619147315334E+018,base_imu_link,0.5789259205,0.8148325231,0.0291468152,0.0065727528,0.0025,0,0,0,0.0025,0,0,0,0.0025,0.06,-0.25,-0.01,0.02,0,0,0,0.02,0,0,0,0.02,0.04290125,2.2074991406,-11.5105585937,0.04,0,0,0,0.04,0,0,0,0.04,1
1.55619147317356E+018,985,1.55619147317333E+018,base_imu_link,0.5791047456,0.8145802641,0.0308715898,0.0119846502,0.0025,0,0,0,0.0025,0,0,0,0.0025,0.05,-0.28,-0.01,0.02,0,0,0,0.02,0,0,0,0.02,-0.0670332031,0.0907821094,-10.7444648437,0.04,0,0,0,0.04,0,0,0,0.04,1
1.55619147319338E+018,986,1.55619147319311E+018,base_imu_link,0.579485664,0.8144468756,0.0262961527,0.0134597348,0.0025,0,0,0,0.0025,0,0,0,0.0025,0.04,-0.29,-0.01,0.02,0,0,0,0.02,0,0,0,0.02,-0.0095761719,0.9384648438,-11.79784375,0.04,0,0,0,0.04,0,0,0,0.04,1
1.55619147321333E+018,987,1.55619147321307E+018,base_imu_link,0.5797619966,0.8142449549,0.0247738599,0.0163534888,0.0025,0,0,0,0.0025,0,0,0,0.0025,0.04,-0.3,-0.02,0.02,0,0,0,0.02,0,0,0,0.02,-0.2585566406,0.493364375,-10.4667558594,0.04,0,0,0,0.04,0,0,0,0.04,1
1.55619147323331E+018,988,1.55619147323306E+018,base_imu_link,0.5798879003,0.8141839712,0.0215080182,0.0192844329,0.0025,0,0,0,0.0025,0,0,0,0.0025,0.04,-0.3,-0.02,0.02,0,0,0,0.02,0,0,0,0.02,0.0528604688,0.45965625,-10.6724520312,0.04,0,0,0,0.04,0,0,0,0.04,1
1.55619147325331E+018,989,1.55619147325308E+018,base_imu_link,0.5799138607,0.8141824335,0.0193782957,0.0207692281,0.0025,0,0,0,0.0025,0,0,0,0.0025,0.03,-0.3,-0.02,0.02,0,0,0,0.02,0,0,0,0.02,0.1294698438,0.689484375,-10.385166875,0.04,0,0,0,0.04,0,0,0,0.04,1
1.55619147327335E+018,990,1.55619147327316E+018,base_imu_link,0.5798618418,0.8141964872,0.018578834,0.0223417006,0.0025,0,0,0,0.0025,0,0,0,0.0025,0.03,-0.29,-0.02,0.02,0,0,0,0.02,0,0,0,0.02,0.0670332031,0.1198936719,-10.1649149219,0.04,0,0,0,0.04,0,0,0,0.04,1
1.55619147329321E+018,991,1.55619147329294E+018,base_imu_link,0.5797257701,0.8143534847,0.015651581,0.0223933352,0.0025,0,0,0,0.0025,0,0,0,0.0025,0.02,-0.29,-0.01,0.02,0,0,0,0.02,0,0,0,0.02,-0.2060792188,0.0812059375,-10.4522000781,0.04,0,0,0,0.04,0,0,0,0.04,1
1.55619147331349E+018,992,1.55619147331316E+018,base_imu_link,0.5796314864,0.8144504336,0.0122568773,0.023400857,0.0025,0,0,0,0.0025,0,0,0,0.0025,0.02,-0.28,0,0.02,0,0,0,0.02,0,0,0,0.02,0,0.0287285156,-9.882609375,0.04,0,0,0,0.04,0,0,0,0.04,1
1.55619147333357E+018,993,1.55619147333311E+018,base_imu_link,0.5795064672,0.8145801575,0.0096029916,0.0232207691,0.0025,0,0,0,0.0025,0,0,0,0.0025,0,-0.26,0,0.02,0,0,0,0.02,0,0,0,0.02,-0.536265625,-0.15321875,-10.3277098438,0.04,0,0,0,0.04,0,0,0,0.04,1
1.55619147335347E+018,994,1.55619147335315E+018,base_imu_link,0.5792639395,0.814748734,0.0052294107,0.0247071264,0.0025,0,0,0,0.0025,0,0,0,0.0025,0,-0.26,0,0.02,0,0,0,0.02,0,0,0,0.02,-0.4692324219,0.3351660156,-10.1266102344,0.04,0,0,0,0.04,0,0,0,0.04,1
1.55619147337329E+018,995,1.55619147337307E+018,base_imu_link,0.5787580349,0.8150384289,0.0034727842,0.0271925753,0.0025,0,0,0,0.0025,0,0,0,0.0025,-0.02,-0.25,-0.01,0.02,0,0,0,0.02,0,0,0,0.02,0.2156553906,0.4071788281,-10.189046875,0.04,0,0,0,0.04,0,0,0,0.04,1
1.55619147339333E+018,996,1.55619147339296E+018,base_imu_link,0.5783357754,0.8153429166,0.0041964375,0.0269452986,0.0025,0,0,0,0.0025,0,0,0,0.0025,-0.02,-0.25,0,0.02,0,0,0,0.02,0,0,0,0.02,-0.6749285938,0,-10.418875,0.04,0,0,0,0.04,0,0,0,0.04,1
1.55619147341318E+018,997,1.55619147341288E+018,base_imu_link,0.5777104286,0.8157258433,0.0009356975,0.0290023062,0.0025,0,0,0,0.0025,0,0,0,0.0025,-0.03,-0.24,0,0.02,0,0,0,0.02,0,0,0,0.02,-0.2010996094,0.3976026563,-9.576171875,0.04,0,0,0,0.04,0,0,0,0.04,1
1.55619147343317E+018,998,1.55619147343294E+018,base_imu_link,0.5771592263,0.8160677485,0.0008675589,0.030329931,0.0025,0,0,0,0.0025,0,0,0,0.0025,-0.03,-0.24,-0.01,0.02,0,0,0,0.02,0,0,0,0.02,0.1723710938,-0.3160136719,-9.576171875,0.04,0,0,0,0.04,0,0,0,0.04,1
1.55619147345297E+018,999,1.55619147345272E+018,base_imu_link,0.5765620414,0.8165792584,-0.0011676595,0.0278058209,0.0025,0,0,0,0.0025,0,0,0,0.0025,-0.01,-0.24,0,0.02,0,0,0,0.02,0,0,0,0.02,0.2443839063,1.4031007031,-8.8866875,0.04,0,0,0,0.04,0,0,0,0.04,1
1.55619147347313E+018,1000,1.55619147347288E+018,base_imu_link,0.5758539545,0.8169804413,0.0035529833,0.03037364,0.0025,0,0,0,0.0025,0,0,0,0.0025,-0.04,-0.23,-0.02,0.02,0,0,0,0.02,0,0,0,0.02,-0.9767695313,0.7565175781,-9.7102382813,0.04,0,0,0,0.04,0,0,0,0.04,1
1.55619147349329E+018,1001,1.55619147349291E+018,base_imu_link,0.5750454745,0.8173334879,0.00251301,0.0358100055,0.0025,0,0,0,0.0025,0,0,0,0.0025,-0.04,-0.23,-0.01,0.02,0,0,0,0.02,0,0,0,0.02,-0.5029405469,0.3064375,-9.6290323438,0.04,0,0,0,0.04,0,0,0,0.04,1
1.55619147351303E+018,1002,1.55619147351274E+018,base_imu_link,0.5743262998,0.8177634756,0.0015288818,0.0375481281,0.0025,0,0,0,0.0025,0,0,0,0.0025,-0.08,-0.22,-0.01,0.02,0,0,0,0.02,0,0,0,0.02,-0.7036571094,0.0049796094,-10.1457625781,0.04,0,0,0,0.04,0,0,0,0.04,1
1.55619147353302E+018,1003,1.55619147353275E+018,base_imu_link,0.5735710359,0.8182339185,-0.0008423451,0.0388434269,0.0025,0,0,0,0.0025,0,0,0,0.0025,-0.1,-0.2,-0.01,0.02,0,0,0,0.02,0,0,0,0.02,-1.4172734375,-0.229828125,-10.7827695312,0.04,0,0,0,0.04,0,0,0,0.04,1
1.55619147355305E+018,1004,1.55619147355249E+018,base_imu_link,0.5725422395,0.8188031694,-0.0048811826,0.0416284498,0.0025,0,0,0,0.0025,0,0,0,0.0025,-0.11,-0.18,-0.01,0.02,0,0,0,0.02,0,0,0,0.02,-1.5467432813,0.9671933594,-10.8352469531,0.04,0,0,0,0.04,0,0,0,0.04,1
1.55619147357396E+018,1005,1.55619147357253E+018,base_imu_link,0.5716568381,0.8191317165,-0.0047796577,0.0469983557,0.0025,0,0,0,0.0025,0,0,0,0.0025,-0.09,-0.15,-0.01,0.02,0,0,0,0.02,0,0,0,0.02,-1.1874453125,0.1673914844,-10.998041875,0.04,0,0,0,0.04,0,0,0,0.04,1
1.55619147359307E+018,1006,1.55619147359277E+018,base_imu_link,0.5705870893,0.8197792318,-0.0063998384,0.0484915124,0.0025,0,0,0,0.0025,0,0,0,0.0025,-0.08,-0.11,-0.01,0.02,0,0,0,0.02,0,0,0,0.02,-1.0679346875,1.0246503906,-10.1986230469,0.04,0,0,0,0.04,0,0,0,0.04,1
1.5561914736129E+018,1007,1.55619147361263E+018,base_imu_link,0.5695675022,0.8203088891,-0.004602207,0.0516237028,0.0025,0,0,0,0.0025,0,0,0,0.0025,-0.05,-0.08,0,0.02,0,0,0,0.02,0,0,0,0.02,-1.0200538281,0.1865438281,-11.2807304687,0.04,0,0,0,0.04,0,0,0,0.04,1
1.55619147363292E+018,1008,1.55619147363267E+018,base_imu_link,0.5685228631,0.8210364457,-0.0056930766,0.0514635592,0.0025,0,0,0,0.0025,0,0,0,0.0025,-0.03,-0.05,0,0.02,0,0,0,0.02,0,0,0,0.02,-1.1541202344,1.0533789063,-10.5050605469,0.04,0,0,0,0.04,0,0,0,0.04,1
1.55619147365275E+018,1009,1.55619147365249E+018,base_imu_link,0.5677034288,0.8214749373,-0.0040709195,0.0536206288,0.0025,0,0,0,0.0025,0,0,0,0.0025,-0.02,-0.01,0.01,0.02,0,0,0,0.02,0,0,0,0.02,-1.4172734375,1.2498819531,-9.7726749219,0.04,0,0,0,0.04,0,0,0,0.04,1
1.55619147367291E+018,1010,1.55619147367263E+018,base_imu_link,0.5667291462,0.8218791987,-0.0022857439,0.0576839048,0.0025,0,0,0,0.0025,0,0,0,0.0025,0,0.02,0.01,0.02,0,0,0,0.02,0,0,0,0.02,-1.5371671094,0.7948222656,-10.7923457031,0.04,0,0,0,0.04,0,0,0,0.04,1
1.55619147369523E+018,1011,1.55619147369495E+018,base_imu_link,0.5657521948,0.8224418629,-0.002444734,0.059227186,0.0025,0,0,0,0.0025,0,0,0,0.0025,-0.02,0.05,0.01,0.02,0,0,0,0.02,0,0,0,0.02,-0.9576171875,1.9393663281,-9.6240527344,0.04,0,0,0,0.04,0,0,0,0.04,1
1.55619147371274E+018,1012,1.55619147371249E+018,base_imu_link,0.5650183628,0.822702049,0.0038203814,0.0624579297,0.0025,0,0,0,0.0025,0,0,0,0.0025,0,0.08,0.01,0.02,0,0,0,0.02,0,0,0,0.02,-0.9863457031,0.9480410156,-9.9350867969,0.04,0,0,0,0.04,0,0,0,0.04,1
1.55619147373276E+018,1013,1.55619147373246E+018,base_imu_link,0.5641701989,0.8233086332,0.0051264794,0.0620370887,0.0025,0,0,0,0.0025,0,0,0,0.0025,0.01,0.1,0.01,0.02,0,0,0,0.02,0,0,0,0.02,-0.4500800781,1.4988624219,-9.3942246094,0.04,0,0,0,0.04,0,0,0,0.04,1
1.5561914737529E+018,1014,1.55619147375266E+018,base_imu_link,0.5635798119,0.8237263731,0.0101671939,0.0612314139,0.0025,0,0,0,0.0025,0,0,0,0.0025,0.02,0.12,0.01,0.02,0,0,0,0.02,0,0,0,0.02,-0.7515379688,1.7332871094,-9.3130186719,0.04,0,0,0,0.04,0,0,0,0.04,1
1.55619147377271E+018,1015,1.55619147377231E+018,base_imu_link,0.5630702935,0.823938164,0.0147552063,0.0621291434,0.0025,0,0,0,0.0025,0,0,0,0.0025,0.04,0.13,0.02,0.02,0,0,0,0.02,0,0,0,0.02,-0.76609375,0.3018409375,-10.0741328125,0.04,0,0,0,0.04,0,0,0,0.04,1
1.55619147379275E+018,1016,1.55619147379239E+018,base_imu_link,0.5624583999,0.8246408594,0.0131048207,0.0586196648,0.0025,0,0,0,0.0025,0,0,0,0.0025,0.03,0.14,0,0.02,0,0,0,0.02,0,0,0,0.02,0.0528604688,1.4222530469,-9.2314296875,0.04,0,0,0,0.04,0,0,0,0.04,1
1.55619147381289E+018,1017,1.55619147381249E+018,base_imu_link,0.5623444862,0.8248314884,0.0181489952,0.0556085292,0.0025,0,0,0,0.0025,0,0,0,0.0025,0.04,0.14,0.01,0.02,0,0,0,0.02,0,0,0,0.02,-0.0049796094,0.9384648438,-9.3271914063,0.04,0,0,0,0.04,0,0,0,0.04,1
1.55619147383263E+018,1018,1.5561914738324E+018,base_imu_link,0.5621856751,0.8251356866,0.0206454544,0.0516926543,0.0025,0,0,0,0.0025,0,0,0,0.0025,0.06,0.14,0.01,0.02,0,0,0,0.02,0,0,0,0.02,-0.3351660156,0.3447421875,-9.9063582813,0.04,0,0,0,0.04,0,0,0,0.04,1
1.55619147385253E+018,1019,1.55619147385232E+018,base_imu_link,0.5620126421,0.8255470503,0.0194689375,0.0472738659,0.0025,0,0,0,0.0025,0,0,0,0.0025,0.06,0.15,0,0.02,0,0,0,0.02,0,0,0,0.02,0.9288886719,1.0629550781,-9.0065811719,0.04,0,0,0,0.04,0,0,0,0.04,1
1.55619147387237E+018,1020,1.55619147387217E+018,base_imu_link,0.5622317875,0.8255971964,0.0244585548,0.0410665992,0.0025,0,0,0,0.0025,0,0,0,0.0025,0.08,0.14,0.01,0.02,0,0,0,0.02,0,0,0,0.02,0.4692324219,0.6990605469,-9.4516816406,0.04,0,0,0,0.04,0,0,0,0.04,1
1.55619147389257E+018,1021,1.55619147389233E+018,base_imu_link,0.5621771099,0.8258205602,0.0265903944,0.0356405722,0.0025,0,0,0,0.0025,0,0,0,0.0025,0.08,0.14,0.01,0.02,0,0,0,0.02,0,0,0,0.02,0.4213515625,0.2252315625,-9.3704757031,0.04,0,0,0,0.04,0,0,0,0.04,1
